"Participant_ID","task_version","withinblock_trialnumber","withinparticipant_blocknumber","BlockFileName","ImageFile","Image","TrialType","P_N_response","P_N_response.rt","CTQ_log_z","correct_response","accuracy"
"P_001","V2",0,0,"Block6.csv","Stimuli/AF12_AO.jpg","AF12_angry","angry","N",0.6562446,0.948406013,"N","correct"
"P_001","V2",1,0,"Block6.csv","Stimuli/WF13_SUR.jpg","WF13_surprised","surprised","P",0.2847215,0.948406013,NA,NA
"P_001","V2",2,0,"Block6.csv","Stimuli/WM12_SUR.jpg","WM12_surprised","surprised","P",0.6342209,0.948406013,NA,NA
"P_001","V2",3,0,"Block6.csv","Stimuli/WF06_SUR.jpg","WF06_surprised","surprised","N",0.7185404,0.948406013,NA,NA
"P_001","V2",4,0,"Block6.csv","Stimuli/WF15_SUR.jpg","WF15_surprised","surprised","P",0.4345876,0.948406013,NA,NA
"P_001","V2",5,0,"Block6.csv","Stimuli/BF05_SUR.jpg","BF05_surprised","surprised","P",1.1487964,0.948406013,NA,NA
"P_001","V2",6,0,"Block6.csv","Stimuli/BM11_AO.jpg","BM11_angry","angry","N",0.5345637,0.948406013,"N","correct"
"P_001","V2",7,0,"Block6.csv","Stimuli/WM02_AO.jpg","WM02_angry","angry","N",0.3874989,0.948406013,"N","correct"
"P_001","V2",8,0,"Block6.csv","Stimuli/HM05_SUR.jpg","HM05_surprised","surprised","N",0.6185824,0.948406013,NA,NA
"P_001","V2",9,0,"Block6.csv","Stimuli/AF10_SUR.jpg","AF10_surprised","surprised","P",0.4678993,0.948406013,NA,NA
"P_001","V2",10,0,"Block6.csv","Stimuli/BM15_SUR.jpg","BM15_surprised","surprised","N",0.4346773,0.948406013,NA,NA
"P_001","V2",11,0,"Block6.csv","Stimuli/BM12_HO.jpg","BM12_happy","happy","P",0.4372348,0.948406013,"P","correct"
"P_001","V2",12,0,"Block6.csv","Stimuli/HM08_HO.jpg","HM08_happy","happy","P",0.5174549,0.948406013,"P","correct"
"P_001","V2",13,0,"Block6.csv","Stimuli/BF07_AO.jpg","BF07_angry","angry","P",0.6014535,0.948406013,"N","incorrect"
"P_001","V2",14,0,"Block6.csv","Stimuli/WF11_SUR.jpg","WF11_surprised","surprised","P",0.8346394,0.948406013,NA,NA
"P_001","V2",15,0,"Block6.csv","Stimuli/AM03_HO.jpg","AM03_happy","happy","P",0.4829859,0.948406013,"P","correct"
"P_001","V2",16,0,"Block6.csv","Stimuli/AF02_AO.jpg","AF02_angry","angry","N",0.4848195,0.948406013,"N","correct"
"P_001","V2",17,0,"Block6.csv","Stimuli/BF13_HO.jpg","BF13_happy","happy","P",0.5027532,0.948406013,"P","correct"
"P_001","V2",18,0,"Block6.csv","Stimuli/HM01_SUR.jpg","HM01_surprised","surprised","P",0.352913,0.948406013,NA,NA
"P_001","V2",19,0,"Block6.csv","Stimuli/WM04_HO.jpg","WM04_happy","happy","P",0.3181368,0.948406013,"P","correct"
"P_001","V2",0,1,"Block10.csv","Stimuli/HF08_SUR.jpg","HF08_surprised","surprised","P",0.4522304,0.948406013,NA,NA
"P_001","V2",1,1,"Block10.csv","Stimuli/AM03_AO.jpg","AM03_angry","angry","N",0.5170959,0.948406013,"N","correct"
"P_001","V2",2,1,"Block10.csv","Stimuli/WF03_AO.jpg","WF03_angry","angry","N",0.4180589,0.948406013,"N","correct"
"P_001","V2",3,1,"Block10.csv","Stimuli/BM01_SUR.jpg","BM01_surprised","surprised","P",0.5515072,0.948406013,NA,NA
"P_001","V2",4,1,"Block10.csv","Stimuli/BF09_SUR.jpg","BF09_surprised","surprised","N",0.985378,0.948406013,NA,NA
"P_001","V2",5,1,"Block10.csv","Stimuli/BF19_SUR.jpg","BF19_surprised","surprised","P",0.7182452,0.948406013,NA,NA
"P_001","V2",6,1,"Block10.csv","Stimuli/HF04_HO.jpg","HF04_happy","happy","P",0.4017964,0.948406013,"P","correct"
"P_001","V2",7,1,"Block10.csv","Stimuli/WM08_SUR.jpg","WM08_surprised","surprised","N",0.5493424,0.948406013,NA,NA
"P_001","V2",8,1,"Block10.csv","Stimuli/WM13_HO.jpg","WM13_happy","happy","P",0.3678889,0.948406013,"P","correct"
"P_001","V2",9,1,"Block10.csv","Stimuli/AM09_HO.jpg","AM09_happy","happy","P",0.3856621,0.948406013,"P","correct"
"P_001","V2",10,1,"Block10.csv","Stimuli/BM04_SUR.jpg","BM04_surprised","surprised","N",0.6663854,0.948406013,NA,NA
"P_001","V2",11,1,"Block10.csv","Stimuli/BF12_SUR.jpg","BF12_surprised","surprised","P",0.5028497,0.948406013,NA,NA
"P_001","V2",12,1,"Block10.csv","Stimuli/AM08_AO.jpg","AM08_angry","angry","N",0.8343827,0.948406013,"N","correct"
"P_001","V2",13,1,"Block10.csv","Stimuli/WM10_HO.jpg","WM10_happy","happy","P",0.4689268,0.948406013,"P","correct"
"P_001","V2",14,1,"Block10.csv","Stimuli/AM06_SUR.jpg","AM06_surprised","surprised","N",0.4017236,0.948406013,NA,NA
"P_001","V2",15,1,"Block10.csv","Stimuli/BF16_AO.jpg","BF16_angry","angry","P",0.2667293,0.948406013,"N","incorrect"
"P_001","V2",16,1,"Block10.csv","Stimuli/AM05_SUR.jpg","AM05_surprised","surprised","N",0.6024927,0.948406013,NA,NA
"P_001","V2",17,1,"Block10.csv","Stimuli/WF01_SUR.jpg","WF01_surprised","surprised","N",0.7346847,0.948406013,NA,NA
"P_001","V2",18,1,"Block10.csv","Stimuli/WF04_HO.jpg","WF04_happy","happy","P",0.3692707,0.948406013,"P","correct"
"P_001","V2",19,1,"Block10.csv","Stimuli/HF01_AO.jpg","HF01_angry","angry","N",0.4673957,0.948406013,"N","correct"
"P_001","V2",0,2,"Block2.csv","Stimuli/BF01_HO.jpg","BF01_happy","happy","P",0.6174309,0.948406013,"P","correct"
"P_001","V2",1,2,"Block2.csv","Stimuli/AM01_SUR.jpg","AM01_surprised","surprised","N",0.3975119,0.948406013,NA,NA
"P_001","V2",2,2,"Block2.csv","Stimuli/HF07_HO.jpg","HF07_happy","happy","P",0.4370827,0.948406013,"P","correct"
"P_001","V2",3,2,"Block2.csv","Stimuli/BM01_AO.jpg","BM01_angry","angry","N",0.7390705,0.948406013,"N","correct"
"P_001","V2",4,2,"Block2.csv","Stimuli/HF04_SUR.jpg","HF04_surprised","surprised","P",0.5195905,0.948406013,NA,NA
"P_001","V2",5,2,"Block2.csv","Stimuli/WF04_SUR.jpg","WF04_surprised","surprised","P",0.4170947,0.948406013,NA,NA
"P_001","V2",6,2,"Block2.csv","Stimuli/HF02_SUR.jpg","HF02_surprised","surprised","P",0.4657743,0.948406013,NA,NA
"P_001","V2",7,2,"Block2.csv","Stimuli/AM10_AO.jpg","AM10_angry","angry","N",0.3664725,0.948406013,"N","correct"
"P_001","V2",8,2,"Block2.csv","Stimuli/WF10_HO.jpg","WF10_happy","happy","P",0.4674515,0.948406013,"P","correct"
"P_001","V2",9,2,"Block2.csv","Stimuli/HM06_AO.jpg","HM06_angry","angry","N",0.43432,0.948406013,"N","correct"
"P_001","V2",10,2,"Block2.csv","Stimuli/AM09_SUR.jpg","AM09_surprised","surprised","N",0.5519506,0.948406013,NA,NA
"P_001","V2",11,2,"Block2.csv","Stimuli/AF07_HO.jpg","AF07_happy","happy","P",0.2696171,0.948406013,"P","correct"
"P_001","V2",12,2,"Block2.csv","Stimuli/BF20_SUR.jpg","BF20_surprised","surprised","N",0.336654,0.948406013,NA,NA
"P_001","V2",13,2,"Block2.csv","Stimuli/HF05_AO.jpg","HF05_angry","angry","N",0.449242,0.948406013,"N","correct"
"P_001","V2",14,2,"Block2.csv","Stimuli/BM07_SUR.jpg","BM07_surprised","surprised","N",0.5186756,0.948406013,NA,NA
"P_001","V2",15,2,"Block2.csv","Stimuli/WM13_SUR.jpg","WM13_surprised","surprised","N",0.5855858,0.948406013,NA,NA
"P_001","V2",16,2,"Block2.csv","Stimuli/BM17_SUR.jpg","BM17_surprised","surprised","N",0.369285,0.948406013,NA,NA
"P_001","V2",17,2,"Block2.csv","Stimuli/BM03_SUR.jpg","BM03_surprised","surprised","P",0.4351634,0.948406013,NA,NA
"P_001","V2",18,2,"Block2.csv","Stimuli/BM02_HO.jpg","BM02_happy","happy","P",0.4020343,0.948406013,"P","correct"
"P_001","V2",19,2,"Block2.csv","Stimuli/WF05_AO.jpg","WF05_angry","angry","N",0.3531722,0.948406013,"N","correct"
"P_001","V2",0,3,"Block7.csv","Stimuli/HM06_SUR.jpg","HM06_surprised","surprised","P",0.5194105,0.948406013,NA,NA
"P_001","V2",1,3,"Block7.csv","Stimuli/HM10_SUR.jpg","HM10_surprised","surprised","N",0.5014959,0.948406013,NA,NA
"P_001","V2",2,3,"Block7.csv","Stimuli/BF01_SUR.jpg","BF01_surprised","surprised","P",0.7848055,0.948406013,NA,NA
"P_001","V2",3,3,"Block7.csv","Stimuli/AF08_AO.jpg","AF08_angry","angry","N",0.3689472,0.948406013,"N","correct"
"P_001","V2",4,3,"Block7.csv","Stimuli/BF07_SUR.jpg","BF07_surprised","surprised","P",0.4184903,0.948406013,NA,NA
"P_001","V2",5,3,"Block7.csv","Stimuli/AF12_SUR.jpg","AF12_surprised","surprised","P",0.4325414,0.948406013,NA,NA
"P_001","V2",6,3,"Block7.csv","Stimuli/BM12_AO.jpg","BM12_angry","angry","N",0.6687812,0.948406013,"N","correct"
"P_001","V2",7,3,"Block7.csv","Stimuli/HF03_AO.jpg","HF03_angry","angry","N",0.5026763,0.948406013,"N","correct"
"P_001","V2",8,3,"Block7.csv","Stimuli/WM04_AO.jpg","WM04_angry","angry","N",0.7684734,0.948406013,"N","correct"
"P_001","V2",9,3,"Block7.csv","Stimuli/HM11_HO.jpg","HM11_happy","happy","P",0.6525847,0.948406013,"P","correct"
"P_001","V2",10,3,"Block7.csv","Stimuli/BF13_AO.jpg","BF13_angry","angry","P",0.7179453,0.948406013,"N","incorrect"
"P_001","V2",11,3,"Block7.csv","Stimuli/BM14_SUR.jpg","BM14_surprised","surprised","N",0.7038888,0.948406013,NA,NA
"P_001","V2",12,3,"Block7.csv","Stimuli/BM15_HO.jpg","BM15_happy","happy","P",0.4683501,0.948406013,"P","correct"
"P_001","V2",13,3,"Block7.csv","Stimuli/AM07_SUR.jpg","AM07_surprised","surprised","N",0.8010281,0.948406013,NA,NA
"P_001","V2",14,3,"Block7.csv","Stimuli/AM04_HO.jpg","AM04_happy","happy","P",0.351306,0.948406013,"P","correct"
"P_001","V2",15,3,"Block7.csv","Stimuli/WM02_SUR.jpg","WM02_surprised","surprised","P",0.4520261,0.948406013,NA,NA
"P_001","V2",16,3,"Block7.csv","Stimuli/BF15_HO.jpg","BF15_happy","happy","P",0.3675716,0.948406013,"P","correct"
"P_001","V2",17,3,"Block7.csv","Stimuli/WF13_HO.jpg","WF13_happy","happy","P",0.2201017,0.948406013,"P","correct"
"P_001","V2",18,3,"Block7.csv","Stimuli/BF18_SUR.jpg","BF18_surprised","surprised","P",0.569973,0.948406013,NA,NA
"P_001","V2",19,3,"Block7.csv","Stimuli/AF05_SUR.jpg","AF05_surprised","surprised","P",0.4676806,0.948406013,NA,NA
"P_001","V2",0,4,"Block5.csv","Stimuli/WF13_AO.jpg","WF13_angry","angry","N",0.4853253,0.948406013,"N","correct"
"P_001","V2",1,4,"Block5.csv","Stimuli/HM02_SUR.jpg","HM02_surprised","surprised","P",0.251518,0.948406013,NA,NA
"P_001","V2",2,4,"Block5.csv","Stimuli/BF04_SUR.jpg","BF04_surprised","surprised","N",1.0333657,0.948406013,NA,NA
"P_001","V2",3,4,"Block5.csv","Stimuli/BM11_HO.jpg","BM11_happy","happy","P",0.5533357,0.948406013,"P","correct"
"P_001","V2",4,4,"Block5.csv","Stimuli/BF14_SUR.jpg","BF14_surprised","surprised","N",0.6701778,0.948406013,NA,NA
"P_001","V2",5,4,"Block5.csv","Stimuli/BM05_AO.jpg","BM05_angry","angry","N",0.7020585,0.948406013,"N","correct"
"P_001","V2",6,4,"Block5.csv","Stimuli/WF02_SUR.jpg","WF02_surprised","surprised","P",0.5829946,0.948406013,NA,NA
"P_001","V2",7,4,"Block5.csv","Stimuli/WM07_SUR.jpg","WM07_surprised","surprised","N",0.5340066,0.948406013,NA,NA
"P_001","V2",8,4,"Block5.csv","Stimuli/HM05_AO.jpg","HM05_angry","angry","N",0.6864132,0.948406013,"N","correct"
"P_001","V2",9,4,"Block5.csv","Stimuli/BF07_HO.jpg","BF07_happy","happy","P",0.5006074,0.948406013,"P","correct"
"P_001","V2",10,4,"Block5.csv","Stimuli/AF08_SUR.jpg","AF08_surprised","surprised","N",0.4357817,0.948406013,NA,NA
"P_001","V2",11,4,"Block5.csv","Stimuli/HM03_SUR.jpg","HM03_surprised","surprised","N",0.7513735,0.948406013,NA,NA
"P_001","V2",12,4,"Block5.csv","Stimuli/BF05_AO.jpg","BF05_angry","angry","N",0.5208625,0.948406013,"N","correct"
"P_001","V2",13,4,"Block5.csv","Stimuli/BM08_SUR.jpg","BM08_surprised","surprised","N",1.1343257,0.948406013,NA,NA
"P_001","V2",14,4,"Block5.csv","Stimuli/HM06_HO.jpg","HM06_happy","happy","P",0.535712,0.948406013,"P","correct"
"P_001","V2",15,4,"Block5.csv","Stimuli/AF10_AO.jpg","AF10_angry","angry","N",0.434443,0.948406013,"N","correct"
"P_001","V2",16,4,"Block5.csv","Stimuli/AF12_HO.jpg","AF12_happy","happy","P",0.2686824,0.948406013,"P","correct"
"P_001","V2",17,4,"Block5.csv","Stimuli/WF12_SUR.jpg","WF12_surprised","surprised","N",0.5184649,0.948406013,NA,NA
"P_001","V2",18,4,"Block5.csv","Stimuli/WM02_HO.jpg","WM02_happy","happy","P",0.4687918,0.948406013,"P","correct"
"P_001","V2",19,4,"Block5.csv","Stimuli/BM12_SUR.jpg","BM12_surprised","surprised","P",0.4353553,0.948406013,NA,NA
"P_001","V2",0,5,"Block4.csv","Stimuli/WF12_AO.jpg","WF12_angry","angry","N",0.3867139,0.948406013,"N","correct"
"P_001","V2",1,5,"Block4.csv","Stimuli/WF07_SUR.jpg","WF07_surprised","surprised","P",0.3540754,0.948406013,NA,NA
"P_001","V2",2,5,"Block4.csv","Stimuli/BF03_SUR.jpg","BF03_surprised","surprised","N",0.7341005,0.948406013,NA,NA
"P_001","V2",3,5,"Block4.csv","Stimuli/BM11_SUR.jpg","BM11_surprised","surprised","P",0.3498442,0.948406013,NA,NA
"P_001","V2",4,5,"Block4.csv","Stimuli/BM05_HO.jpg","BM05_happy","happy","P",0.5354311,0.948406013,"P","correct"
"P_001","V2",5,5,"Block4.csv","Stimuli/HM03_AO.jpg","HM03_angry","angry","N",0.5513807,0.948406013,"N","correct"
"P_001","V2",6,5,"Block4.csv","Stimuli/AF07_SUR.jpg","AF07_surprised","surprised","P",1.1668527,0.948406013,NA,NA
"P_001","V2",7,5,"Block4.csv","Stimuli/AF10_HO.jpg","AF10_happy","happy","P",0.4339031,0.948406013,"P","correct"
"P_001","V2",8,5,"Block4.csv","Stimuli/WM06_HO.jpg","WM06_happy","happy","P",0.4508411,0.948406013,"P","correct"
"P_001","V2",9,5,"Block4.csv","Stimuli/BM03_AO.jpg","BM03_angry","angry","N",0.3509439,0.948406013,"N","correct"
"P_001","V2",10,5,"Block4.csv","Stimuli/WF10_SUR.jpg","WF10_surprised","surprised","P",0.4183723,0.948406013,NA,NA
"P_001","V2",11,5,"Block4.csv","Stimuli/BM18_SUR.jpg","BM18_surprised","surprised","N",0.4364061,0.948406013,NA,NA
"P_001","V2",12,5,"Block4.csv","Stimuli/AF01_SUR.jpg","AF01_surprised","surprised","P",0.8668564,0.948406013,NA,NA
"P_001","V2",13,5,"Block4.csv","Stimuli/HM05_HO.jpg","HM05_happy","happy","P",0.7501293,0.948406013,"P","correct"
"P_001","V2",14,5,"Block4.csv","Stimuli/BF05_HO.jpg","BF05_happy","happy","P",0.5178743,0.948406013,"P","correct"
"P_001","V2",15,5,"Block4.csv","Stimuli/WM03_SUR.jpg","WM03_surprised","surprised","N",0.468255,0.948406013,NA,NA
"P_001","V2",16,5,"Block4.csv","Stimuli/HM08_AO.jpg","HM08_angry","angry","N",0.5019202,0.948406013,"N","correct"
"P_001","V2",17,5,"Block4.csv","Stimuli/HF07_SUR.jpg","HF07_surprised","surprised","N",0.7196297,0.948406013,NA,NA
"P_001","V2",18,5,"Block4.csv","Stimuli/AM11_SUR.jpg","AM11_surprised","surprised","N",0.469111,0.948406013,NA,NA
"P_001","V2",19,5,"Block4.csv","Stimuli/BF04_AO.jpg","BF04_angry","angry","P",0.3517342,0.948406013,"N","incorrect"
"P_001","V2",0,6,"Block1.csv","Stimuli/HM09_SUR.jpg","HM09_surprised","surprised","N",0.5514593,0.948406013,NA,NA
"P_001","V2",1,6,"Block1.csv","Stimuli/HF05_HO.jpg","HF05_happy","happy","P",0.3342858,0.948406013,"P","correct"
"P_001","V2",2,6,"Block1.csv","Stimuli/WF04_AO.jpg","WF04_angry","angry","N",0.5013633,0.948406013,"N","correct"
"P_001","V2",3,6,"Block1.csv","Stimuli/HF04_AO.jpg","HF04_angry","angry","N",0.2856922,0.948406013,"N","correct"
"P_001","V2",4,6,"Block1.csv","Stimuli/WF03_SUR.jpg","WF03_surprised","surprised","P",0.4848548,0.948406013,NA,NA
"P_001","V2",5,6,"Block1.csv","Stimuli/WF05_HO.jpg","WF05_happy","happy","P",0.4006692,0.948406013,"P","correct"
"P_001","V2",6,6,"Block1.csv","Stimuli/BM01_HO.jpg","BM01_happy","happy","P",0.3852684,0.948406013,"P","correct"
"P_001","V2",7,6,"Block1.csv","Stimuli/AM08_SUR.jpg","AM08_surprised","surprised","N",0.4851247,0.948406013,NA,NA
"P_001","V2",8,6,"Block1.csv","Stimuli/WF14_SUR.jpg","WF14_surprised","surprised","P",0.9176566,0.948406013,NA,NA
"P_001","V2",9,6,"Block1.csv","Stimuli/AF02_HO.jpg","AF02_happy","happy","P",0.5009901,0.948406013,"P","correct"
"P_001","V2",10,6,"Block1.csv","Stimuli/BM02_SUR.jpg","BM02_surprised","surprised","N",0.7846192,0.948406013,NA,NA
"P_001","V2",11,6,"Block1.csv","Stimuli/BM13_SUR.jpg","BM13_surprised","surprised","N",0.5677992,0.948406013,NA,NA
"P_001","V2",12,6,"Block1.csv","Stimuli/AM10_HO.jpg","AM10_happy","happy","P",0.3886556,0.948406013,"P","correct"
"P_001","V2",13,6,"Block1.csv","Stimuli/HF03_SUR.jpg","HF03_surprised","surprised","P",0.5172958,0.948406013,NA,NA
"P_001","V2",14,6,"Block1.csv","Stimuli/BF19_AO.jpg","BF19_angry","angry","P",0.4847546,0.948406013,"N","incorrect"
"P_001","V2",15,6,"Block1.csv","Stimuli/AF11_SUR.jpg","AF11_surprised","surprised","N",0.4505057,0.948406013,NA,NA
"P_001","V2",16,6,"Block1.csv","Stimuli/WM10_SUR.jpg","WM10_surprised","surprised","P",0.6843421,0.948406013,NA,NA
"P_001","V2",17,6,"Block1.csv","Stimuli/WM05_SUR.jpg","WM05_surprised","surprised","N",0.7522997,0.948406013,NA,NA
"P_001","V2",18,6,"Block1.csv","Stimuli/WM13_AO.jpg","WM13_angry","angry","N",0.5331646,0.948406013,"N","correct"
"P_001","V2",19,6,"Block1.csv","Stimuli/AM09_AO.jpg","AM09_angry","angry","N",0.6028823,0.948406013,"N","correct"
"P_001","V2",0,7,"Block3.csv","Stimuli/WM08_HO.jpg","WM08_happy","happy","P",0.404208,0.948406013,"P","correct"
"P_001","V2",1,7,"Block3.csv","Stimuli/HM11_AO.jpg","HM11_angry","angry","N",0.351984,0.948406013,"N","correct"
"P_001","V2",2,7,"Block3.csv","Stimuli/AM10_SUR.jpg","AM10_surprised","surprised","N",0.3697289,0.948406013,NA,NA
"P_001","V2",3,7,"Block3.csv","Stimuli/HF05_SUR.jpg","HF05_surprised","surprised","N",0.3837584,0.948406013,NA,NA
"P_001","V2",4,7,"Block3.csv","Stimuli/HM03_HO.jpg","HM03_happy","happy","P",0.6172057,0.948406013,"P","correct"
"P_001","V2",5,7,"Block3.csv","Stimuli/AF07_AO.jpg","AF07_angry","angry","N",0.8667413,0.948406013,"N","correct"
"P_001","V2",6,7,"Block3.csv","Stimuli/BM09_SUR.jpg","BM09_surprised","surprised","N",0.5031536,0.948406013,NA,NA
"P_001","V2",7,7,"Block3.csv","Stimuli/WF10_AO.jpg","WF10_angry","angry","N",0.5347343,0.948406013,"N","correct"
"P_001","V2",8,7,"Block3.csv","Stimuli/WF12_HO.jpg","WF12_happy","happy","P",0.7000701,0.948406013,"P","correct"
"P_001","V2",9,7,"Block3.csv","Stimuli/BM02_AO.jpg","BM02_angry","angry","N",0.4874557,0.948406013,"N","correct"
"P_001","V2",10,7,"Block3.csv","Stimuli/HM07_SUR.jpg","HM07_surprised","surprised","N",0.5856105,0.948406013,NA,NA
"P_001","V2",11,7,"Block3.csv","Stimuli/BM03_HO.jpg","BM03_happy","happy","P",0.1856972,0.948406013,"P","correct"
"P_001","V2",12,7,"Block3.csv","Stimuli/AF02_SUR.jpg","AF02_surprised","surprised","N",0.7674009,0.948406013,NA,NA
"P_001","V2",13,7,"Block3.csv","Stimuli/WM11_SUR.jpg","WM11_surprised","surprised","P",0.7856197,0.948406013,NA,NA
"P_001","V2",14,7,"Block3.csv","Stimuli/BF17_SUR.jpg","BF17_surprised","surprised","N",0.6535981,0.948406013,NA,NA
"P_001","V2",15,7,"Block3.csv","Stimuli/AF08_HO.jpg","AF08_happy","happy","P",0.5485761,0.948406013,"P","correct"
"P_001","V2",16,7,"Block3.csv","Stimuli/BM05_SUR.jpg","BM05_surprised","surprised","N",0.7175326,0.948406013,NA,NA
"P_001","V2",17,7,"Block3.csv","Stimuli/HF09_SUR.jpg","HF09_surprised","surprised","N",0.73301,0.948406013,NA,NA
"P_001","V2",18,7,"Block3.csv","Stimuli/WF05_SUR.jpg","WF05_surprised","surprised","N",0.7688534,0.948406013,NA,NA
"P_001","V2",19,7,"Block3.csv","Stimuli/HF07_AO.jpg","HF07_angry","angry","P",0.934982,0.948406013,"N","incorrect"
"P_001","V2",0,8,"Block8.csv","Stimuli/WF01_HO.jpg","WF01_happy","happy","P",0.4503703,0.948406013,"P","correct"
"P_001","V2",1,8,"Block8.csv","Stimuli/WM06_AO.jpg","WM06_angry","angry","N",0.4846485,0.948406013,"N","correct"
"P_001","V2",2,8,"Block8.csv","Stimuli/BM18_HO.jpg","BM18_happy","happy","P",0.2688364,0.948406013,"P","correct"
"P_001","V2",3,8,"Block8.csv","Stimuli/BF01_AO.jpg","BF01_angry","angry","N",0.3839178,0.948406013,"N","correct"
"P_001","V2",4,8,"Block8.csv","Stimuli/BM15_AO.jpg","BM15_angry","angry","N",0.5852179,0.948406013,"N","correct"
"P_001","V2",5,8,"Block8.csv","Stimuli/AF03_SUR.jpg","AF03_surprised","surprised","P",0.5181905,0.948406013,NA,NA
"P_001","V2",6,8,"Block8.csv","Stimuli/AM04_AO.jpg","AM04_angry","angry","N",0.3513453,0.948406013,"N","correct"
"P_001","V2",7,8,"Block8.csv","Stimuli/BF15_AO.jpg","BF15_angry","angry","N",0.4516367,0.948406013,"N","correct"
"P_001","V2",8,8,"Block8.csv","Stimuli/WM04_SUR.jpg","WM04_surprised","surprised","P",0.3519233,0.948406013,NA,NA
"P_001","V2",9,8,"Block8.csv","Stimuli/HF01_SUR.jpg","HF01_surprised","surprised","N",1.0530691,0.948406013,NA,NA
"P_001","V2",10,8,"Block8.csv","Stimuli/HM08_SUR.jpg","HM08_surprised","surprised","N",0.4357837,0.948406013,NA,NA
"P_001","V2",11,8,"Block8.csv","Stimuli/AM03_SUR.jpg","AM03_surprised","surprised","P",0.2175578,0.948406013,NA,NA
"P_001","V2",12,8,"Block8.csv","Stimuli/AF09_SUR.jpg","AF09_surprised","surprised","P",0.7506343,0.948406013,NA,NA
"P_001","V2",13,8,"Block8.csv","Stimuli/BF04_HO.jpg","BF04_happy","happy","P",0.5029197,0.948406013,"P","correct"
"P_001","V2",14,8,"Block8.csv","Stimuli/BF16_HO.jpg","BF16_happy","happy","P",0.6189635,0.948406013,"P","correct"
"P_001","V2",15,8,"Block8.csv","Stimuli/AM06_HO.jpg","AM06_happy","happy","P",0.7020063,0.948406013,"P","correct"
"P_001","V2",16,8,"Block8.csv","Stimuli/WF08_SUR.jpg","WF08_surprised","surprised","P",0.6699317,0.948406013,NA,NA
"P_001","V2",17,8,"Block8.csv","Stimuli/BF13_SUR.jpg","BF13_surprised","surprised","P",0.6846196,0.948406013,NA,NA
"P_001","V2",18,8,"Block8.csv","Stimuli/BM06_SUR.jpg","BM06_surprised","surprised","P",0.6513586,0.948406013,NA,NA
"P_001","V2",19,8,"Block8.csv","Stimuli/WM09_SUR.jpg","WM09_surprised","surprised","P",0.6024517,0.948406013,NA,NA
"P_001","V2",0,9,"Block9.csv","Stimuli/AM06_AO.jpg","AM06_angry","angry","N",0.5352866,0.948406013,"N","correct"
"P_001","V2",1,9,"Block9.csv","Stimuli/BF19_HO.jpg","BF19_happy","happy","P",0.4513904,0.948406013,"P","correct"
"P_001","V2",2,9,"Block9.csv","Stimuli/WM08_AO.jpg","WM08_angry","angry","N",0.4041908,0.948406013,"N","correct"
"P_001","V2",3,9,"Block9.csv","Stimuli/BM18_AO.jpg","BM18_angry","angry","N",0.6848988,0.948406013,"N","correct"
"P_001","V2",4,9,"Block9.csv","Stimuli/HF01_HO.jpg","HF01_happy","happy","P",0.4496987,0.948406013,"P","correct"
"P_001","V2",5,9,"Block9.csv","Stimuli/BF16_SUR.jpg","BF16_surprised","surprised","N",0.935401,0.948406013,NA,NA
"P_001","V2",6,9,"Block9.csv","Stimuli/WM06_SUR.jpg","WM06_surprised","surprised","P",0.8186408,0.948406013,NA,NA
"P_001","V2",7,9,"Block9.csv","Stimuli/BM16_SUR.jpg","BM16_surprised","surprised","N",0.7676693,0.948406013,NA,NA
"P_001","V2",8,9,"Block9.csv","Stimuli/AM04_SUR.jpg","AM04_surprised","surprised","N",0.85241,0.948406013,NA,NA
"P_001","V2",9,9,"Block9.csv","Stimuli/WM10_AO.jpg","WM10_angry","angry","N",0.5513334,0.948406013,"N","correct"
"P_001","V2",10,9,"Block9.csv","Stimuli/AF06_SUR.jpg","AF06_surprised","surprised","P",0.868568,0.948406013,NA,NA
"P_001","V2",11,9,"Block9.csv","Stimuli/HM11_SUR.jpg","HM11_surprised","surprised","P",0.8016866,0.948406013,NA,NA
"P_001","V2",12,9,"Block9.csv","Stimuli/WF01_AO.jpg","WF01_angry","angry","N",0.5682799,0.948406013,"N","correct"
"P_001","V2",13,9,"Block9.csv","Stimuli/HF10_SUR.jpg","HF10_surprised","surprised","P",0.5333212,0.948406013,NA,NA
"P_001","V2",14,9,"Block9.csv","Stimuli/AM02_SUR.jpg","AM02_surprised","surprised","P",0.6851558,0.948406013,NA,NA
"P_001","V2",15,9,"Block9.csv","Stimuli/AM08_HO.jpg","AM08_happy","happy","P",0.7006381,0.948406013,"P","correct"
"P_001","V2",16,9,"Block9.csv","Stimuli/WF03_HO.jpg","WF03_happy","happy","P",0.5414722,0.948406013,"P","correct"
"P_001","V2",17,9,"Block9.csv","Stimuli/HF03_HO.jpg","HF03_happy","happy","P",0.6191914,0.948406013,"P","correct"
"P_001","V2",18,9,"Block9.csv","Stimuli/BF10_SUR.jpg","BF10_surprised","surprised","None",NA,0.948406013,NA,NA
"P_001","V2",19,9,"Block9.csv","Stimuli/BF15_SUR.jpg","BF15_surprised","surprised","N",0.4684312,0.948406013,NA,NA
"P_003","V2",0,0,"Block1.csv","Stimuli/BM02_SUR.jpg","BM02_surprised","surprised","None",NA,0.718529854,NA,NA
"P_003","V2",1,0,"Block1.csv","Stimuli/BM13_SUR.jpg","BM13_surprised","surprised","P",0.6859791,0.718529854,NA,NA
"P_003","V2",2,0,"Block1.csv","Stimuli/WF03_SUR.jpg","WF03_surprised","surprised","P",0.6690127,0.718529854,NA,NA
"P_003","V2",3,0,"Block1.csv","Stimuli/AM10_HO.jpg","AM10_happy","happy","P",0.4861051,0.718529854,"P","correct"
"P_003","V2",4,0,"Block1.csv","Stimuli/HF05_HO.jpg","HF05_happy","happy","P",0.3008294,0.718529854,"P","correct"
"P_003","V2",5,0,"Block1.csv","Stimuli/WF04_AO.jpg","WF04_angry","angry","N",0.1011083,0.718529854,"N","correct"
"P_003","V2",6,0,"Block1.csv","Stimuli/AM08_SUR.jpg","AM08_surprised","surprised","N",0.6008308,0.718529854,NA,NA
"P_003","V2",7,0,"Block1.csv","Stimuli/WF14_SUR.jpg","WF14_surprised","surprised","P",0.3165818,0.718529854,NA,NA
"P_003","V2",8,0,"Block1.csv","Stimuli/WM05_SUR.jpg","WM05_surprised","surprised","P",0.4339073,0.718529854,NA,NA
"P_003","V2",9,0,"Block1.csv","Stimuli/AM09_AO.jpg","AM09_angry","angry","N",0.3333879,0.718529854,"N","correct"
"P_003","V2",10,0,"Block1.csv","Stimuli/HF04_AO.jpg","HF04_angry","angry","N",0.4181499,0.718529854,"N","correct"
"P_003","V2",11,0,"Block1.csv","Stimuli/HF03_SUR.jpg","HF03_surprised","surprised","P",0.2352212,0.718529854,NA,NA
"P_003","V2",12,0,"Block1.csv","Stimuli/WM13_AO.jpg","WM13_angry","angry","N",0.2197796,0.718529854,"N","correct"
"P_003","V2",13,0,"Block1.csv","Stimuli/WF05_HO.jpg","WF05_happy","happy","P",0.3843904,0.718529854,"P","correct"
"P_003","V2",14,0,"Block1.csv","Stimuli/BM01_HO.jpg","BM01_happy","happy","P",0.1341535,0.718529854,"P","correct"
"P_003","V2",15,0,"Block1.csv","Stimuli/AF11_SUR.jpg","AF11_surprised","surprised","N",0.6018602,0.718529854,NA,NA
"P_003","V2",16,0,"Block1.csv","Stimuli/BF19_AO.jpg","BF19_angry","angry","P",0.8004074,0.718529854,"N","incorrect"
"P_003","V2",17,0,"Block1.csv","Stimuli/HM09_SUR.jpg","HM09_surprised","surprised","P",0.6354802,0.718529854,NA,NA
"P_003","V2",18,0,"Block1.csv","Stimuli/AF02_HO.jpg","AF02_happy","happy","P",0.3525956,0.718529854,"P","correct"
"P_003","V2",19,0,"Block1.csv","Stimuli/WM10_SUR.jpg","WM10_surprised","surprised","P",0.4508998,0.718529854,NA,NA
"P_003","V2",0,1,"Block5.csv","Stimuli/BM05_AO.jpg","BM05_angry","angry","N",0.8847903,0.718529854,"N","correct"
"P_003","V2",1,1,"Block5.csv","Stimuli/BM12_SUR.jpg","BM12_surprised","surprised","P",0.2349429,0.718529854,NA,NA
"P_003","V2",2,1,"Block5.csv","Stimuli/BF04_SUR.jpg","BF04_surprised","surprised","P",0.3667002,0.718529854,NA,NA
"P_003","V2",3,1,"Block5.csv","Stimuli/AF10_AO.jpg","AF10_angry","angry","N",0.6182073,0.718529854,"N","correct"
"P_003","V2",4,1,"Block5.csv","Stimuli/HM05_AO.jpg","HM05_angry","angry","N",0.221807,0.718529854,"N","correct"
"P_003","V2",5,1,"Block5.csv","Stimuli/BF07_HO.jpg","BF07_happy","happy","P",0.3524231,0.718529854,"P","correct"
"P_003","V2",6,1,"Block5.csv","Stimuli/WM02_HO.jpg","WM02_happy","happy","P",0.2350315,0.718529854,"P","correct"
"P_003","V2",7,1,"Block5.csv","Stimuli/WF02_SUR.jpg","WF02_surprised","surprised","P",0.1514156,0.718529854,NA,NA
"P_003","V2",8,1,"Block5.csv","Stimuli/BF14_SUR.jpg","BF14_surprised","surprised","P",0.2701738,0.718529854,NA,NA
"P_003","V2",9,1,"Block5.csv","Stimuli/HM02_SUR.jpg","HM02_surprised","surprised","P",0.2522938,0.718529854,NA,NA
"P_003","V2",10,1,"Block5.csv","Stimuli/AF08_SUR.jpg","AF08_surprised","surprised","N",0.4830044,0.718529854,NA,NA
"P_003","V2",11,1,"Block5.csv","Stimuli/WF13_AO.jpg","WF13_angry","angry","N",0.6010525,0.718529854,"N","correct"
"P_003","V2",12,1,"Block5.csv","Stimuli/HM06_HO.jpg","HM06_happy","happy","P",0.3999549,0.718529854,"P","correct"
"P_003","V2",13,1,"Block5.csv","Stimuli/BF05_AO.jpg","BF05_angry","angry","N",0.2667822,0.718529854,"N","correct"
"P_003","V2",14,1,"Block5.csv","Stimuli/AF12_HO.jpg","AF12_happy","happy","P",0.3864208,0.718529854,"P","correct"
"P_003","V2",15,1,"Block5.csv","Stimuli/HM03_SUR.jpg","HM03_surprised","surprised","N",0.2011229,0.718529854,NA,NA
"P_003","V2",16,1,"Block5.csv","Stimuli/BM08_SUR.jpg","BM08_surprised","surprised","N",0.3181138,0.718529854,NA,NA
"P_003","V2",17,1,"Block5.csv","Stimuli/BM11_HO.jpg","BM11_happy","happy","P",0.3679047,0.718529854,"P","correct"
"P_003","V2",18,1,"Block5.csv","Stimuli/WF12_SUR.jpg","WF12_surprised","surprised","P",0.7005094,0.718529854,NA,NA
"P_003","V2",19,1,"Block5.csv","Stimuli/WM07_SUR.jpg","WM07_surprised","surprised","P",0.95175,0.718529854,NA,NA
"P_003","V2",0,2,"Block7.csv","Stimuli/BF13_AO.jpg","BF13_angry","angry","N",0.9193459,0.718529854,"N","correct"
"P_003","V2",1,2,"Block7.csv","Stimuli/WM02_SUR.jpg","WM02_surprised","surprised","P",0.6845064,0.718529854,NA,NA
"P_003","V2",2,2,"Block7.csv","Stimuli/BM15_HO.jpg","BM15_happy","happy","P",0.4184409,0.718529854,"P","correct"
"P_003","V2",3,2,"Block7.csv","Stimuli/AF12_SUR.jpg","AF12_surprised","surprised","P",0.2687784,0.718529854,NA,NA
"P_003","V2",4,2,"Block7.csv","Stimuli/BF15_HO.jpg","BF15_happy","happy","P",0.2352865,0.718529854,"P","correct"
"P_003","V2",5,2,"Block7.csv","Stimuli/AM04_HO.jpg","AM04_happy","happy","P",0.3832186,0.718529854,"P","correct"
"P_003","V2",6,2,"Block7.csv","Stimuli/AF05_SUR.jpg","AF05_surprised","surprised","P",0.4365471,0.718529854,NA,NA
"P_003","V2",7,2,"Block7.csv","Stimuli/BF18_SUR.jpg","BF18_surprised","surprised","P",0.2687017,0.718529854,NA,NA
"P_003","V2",8,2,"Block7.csv","Stimuli/HM10_SUR.jpg","HM10_surprised","surprised","N",0.6512301,0.718529854,NA,NA
"P_003","V2",9,2,"Block7.csv","Stimuli/BF01_SUR.jpg","BF01_surprised","surprised","P",0.7841175,0.718529854,NA,NA
"P_003","V2",10,2,"Block7.csv","Stimuli/BM14_SUR.jpg","BM14_surprised","surprised","N",0.751309,0.718529854,NA,NA
"P_003","V2",11,2,"Block7.csv","Stimuli/WM04_AO.jpg","WM04_angry","angry","N",0.4517231,0.718529854,"N","correct"
"P_003","V2",12,2,"Block7.csv","Stimuli/BF07_SUR.jpg","BF07_surprised","surprised","P",0.4172038,0.718529854,NA,NA
"P_003","V2",13,2,"Block7.csv","Stimuli/HM11_HO.jpg","HM11_happy","happy","P",0.3685596,0.718529854,"P","correct"
"P_003","V2",14,2,"Block7.csv","Stimuli/AF08_AO.jpg","AF08_angry","angry","N",0.4350746,0.718529854,"N","correct"
"P_003","V2",15,2,"Block7.csv","Stimuli/HM06_SUR.jpg","HM06_surprised","surprised","P",0.3006772,0.718529854,NA,NA
"P_003","V2",16,2,"Block7.csv","Stimuli/WF13_HO.jpg","WF13_happy","happy","P",0.3206314,0.718529854,"P","correct"
"P_003","V2",17,2,"Block7.csv","Stimuli/AM07_SUR.jpg","AM07_surprised","surprised","N",0.4170137,0.718529854,NA,NA
"P_003","V2",18,2,"Block7.csv","Stimuli/HF03_AO.jpg","HF03_angry","angry","N",0.7510328,0.718529854,"N","correct"
"P_003","V2",19,2,"Block7.csv","Stimuli/BM12_AO.jpg","BM12_angry","angry","N",0.6846301,0.718529854,"N","correct"
"P_003","V2",0,3,"Block4.csv","Stimuli/BM03_AO.jpg","BM03_angry","angry","N",0.7039163,0.718529854,"N","correct"
"P_003","V2",1,3,"Block4.csv","Stimuli/AF10_HO.jpg","AF10_happy","happy","P",0.4844098,0.718529854,"P","correct"
"P_003","V2",2,3,"Block4.csv","Stimuli/WM03_SUR.jpg","WM03_surprised","surprised","P",0.7355031,0.718529854,NA,NA
"P_003","V2",3,3,"Block4.csv","Stimuli/WM06_HO.jpg","WM06_happy","happy","P",0.2827326,0.718529854,"P","correct"
"P_003","V2",4,3,"Block4.csv","Stimuli/BF05_HO.jpg","BF05_happy","happy","P",0.3211623,0.718529854,"P","correct"
"P_003","V2",5,3,"Block4.csv","Stimuli/BM11_SUR.jpg","BM11_surprised","surprised","P",0.4186773,0.718529854,NA,NA
"P_003","V2",6,3,"Block4.csv","Stimuli/BM05_HO.jpg","BM05_happy","happy","P",0.4863234,0.718529854,"P","correct"
"P_003","V2",7,3,"Block4.csv","Stimuli/HM08_AO.jpg","HM08_angry","angry","N",0.2179903,0.718529854,"N","correct"
"P_003","V2",8,3,"Block4.csv","Stimuli/HM03_AO.jpg","HM03_angry","angry","N",0.2356416,0.718529854,"N","correct"
"P_003","V2",9,3,"Block4.csv","Stimuli/AF01_SUR.jpg","AF01_surprised","surprised","N",0.3192787,0.718529854,NA,NA
"P_003","V2",10,3,"Block4.csv","Stimuli/WF12_AO.jpg","WF12_angry","angry","N",0.334209,0.718529854,"N","correct"
"P_003","V2",11,3,"Block4.csv","Stimuli/AF07_SUR.jpg","AF07_surprised","surprised","P",0.6009717,0.718529854,NA,NA
"P_003","V2",12,3,"Block4.csv","Stimuli/HM05_HO.jpg","HM05_happy","happy","P",0.3854943,0.718529854,"P","correct"
"P_003","V2",13,3,"Block4.csv","Stimuli/AM11_SUR.jpg","AM11_surprised","surprised","N",0.385558,0.718529854,NA,NA
"P_003","V2",14,3,"Block4.csv","Stimuli/HF07_SUR.jpg","HF07_surprised","surprised","N",0.452349,0.718529854,NA,NA
"P_003","V2",15,3,"Block4.csv","Stimuli/WF10_SUR.jpg","WF10_surprised","surprised","P",0.7510815,0.718529854,NA,NA
"P_003","V2",16,3,"Block4.csv","Stimuli/BF03_SUR.jpg","BF03_surprised","surprised","P",0.3680333,0.718529854,NA,NA
"P_003","V2",17,3,"Block4.csv","Stimuli/BM18_SUR.jpg","BM18_surprised","surprised","P",0.4342544,0.718529854,NA,NA
"P_003","V2",18,3,"Block4.csv","Stimuli/WF07_SUR.jpg","WF07_surprised","surprised","P",0.4010112,0.718529854,NA,NA
"P_003","V2",19,3,"Block4.csv","Stimuli/BF04_AO.jpg","BF04_angry","angry","N",0.4177365,0.718529854,"N","correct"
"P_003","V2",0,4,"Block10.csv","Stimuli/BF09_SUR.jpg","BF09_surprised","surprised","P",0.7855995,0.718529854,NA,NA
"P_003","V2",1,4,"Block10.csv","Stimuli/WF03_AO.jpg","WF03_angry","angry","N",0.4196003,0.718529854,"N","correct"
"P_003","V2",2,4,"Block10.csv","Stimuli/WM13_HO.jpg","WM13_happy","happy","P",0.3371412,0.718529854,"P","correct"
"P_003","V2",3,4,"Block10.csv","Stimuli/AM06_SUR.jpg","AM06_surprised","surprised","N",0.4355553,0.718529854,NA,NA
"P_003","V2",4,4,"Block10.csv","Stimuli/HF08_SUR.jpg","HF08_surprised","surprised","P",0.4511994,0.718529854,NA,NA
"P_003","V2",5,4,"Block10.csv","Stimuli/WF01_SUR.jpg","WF01_surprised","surprised","P",0.5508713,0.718529854,NA,NA
"P_003","V2",6,4,"Block10.csv","Stimuli/BF16_AO.jpg","BF16_angry","angry","N",0.4507512,0.718529854,"N","correct"
"P_003","V2",7,4,"Block10.csv","Stimuli/WM10_HO.jpg","WM10_happy","happy","P",0.3177773,0.718529854,"P","correct"
"P_003","V2",8,4,"Block10.csv","Stimuli/AM08_AO.jpg","AM08_angry","angry","N",0.4840991,0.718529854,"N","correct"
"P_003","V2",9,4,"Block10.csv","Stimuli/BF12_SUR.jpg","BF12_surprised","surprised","P",0.218288,0.718529854,NA,NA
"P_003","V2",10,4,"Block10.csv","Stimuli/AM05_SUR.jpg","AM05_surprised","surprised","N",0.7347786,0.718529854,NA,NA
"P_003","V2",11,4,"Block10.csv","Stimuli/BF19_SUR.jpg","BF19_surprised","surprised","P",0.5012177,0.718529854,NA,NA
"P_003","V2",12,4,"Block10.csv","Stimuli/HF01_AO.jpg","HF01_angry","angry","N",0.5831769,0.718529854,"N","correct"
"P_003","V2",13,4,"Block10.csv","Stimuli/AM03_AO.jpg","AM03_angry","angry","N",0.4352585,0.718529854,"N","correct"
"P_003","V2",14,4,"Block10.csv","Stimuli/BM01_SUR.jpg","BM01_surprised","surprised","P",0.4013188,0.718529854,NA,NA
"P_003","V2",15,4,"Block10.csv","Stimuli/HF04_HO.jpg","HF04_happy","happy","P",0.401411,0.718529854,"P","correct"
"P_003","V2",16,4,"Block10.csv","Stimuli/AM09_HO.jpg","AM09_happy","happy","P",0.2354155,0.718529854,"P","correct"
"P_003","V2",17,4,"Block10.csv","Stimuli/WF04_HO.jpg","WF04_happy","happy","P",0.287717,0.718529854,"P","correct"
"P_003","V2",18,4,"Block10.csv","Stimuli/BM04_SUR.jpg","BM04_surprised","surprised","P",0.384246,0.718529854,NA,NA
"P_003","V2",19,4,"Block10.csv","Stimuli/WM08_SUR.jpg","WM08_surprised","surprised","P",0.2861595,0.718529854,NA,NA
"P_003","V2",0,5,"Block6.csv","Stimuli/WM12_SUR.jpg","WM12_surprised","surprised","P",0.5016474,0.718529854,NA,NA
"P_003","V2",1,5,"Block6.csv","Stimuli/BM12_HO.jpg","BM12_happy","happy","P",0.2324423,0.718529854,"P","correct"
"P_003","V2",2,5,"Block6.csv","Stimuli/BM15_SUR.jpg","BM15_surprised","surprised","N",1.0185315,0.718529854,NA,NA
"P_003","V2",3,5,"Block6.csv","Stimuli/BF13_HO.jpg","BF13_happy","happy","P",0.4007206,0.718529854,"P","correct"
"P_003","V2",4,5,"Block6.csv","Stimuli/BM11_AO.jpg","BM11_angry","angry","N",0.1539285,0.718529854,"N","correct"
"P_003","V2",5,5,"Block6.csv","Stimuli/WF15_SUR.jpg","WF15_surprised","surprised","P",0.2674328,0.718529854,NA,NA
"P_003","V2",6,5,"Block6.csv","Stimuli/HM01_SUR.jpg","HM01_surprised","surprised","P",0.5001847,0.718529854,NA,NA
"P_003","V2",7,5,"Block6.csv","Stimuli/BF05_SUR.jpg","BF05_surprised","surprised","N",0.4336385,0.718529854,NA,NA
"P_003","V2",8,5,"Block6.csv","Stimuli/AF10_SUR.jpg","AF10_surprised","surprised","P",0.5179905,0.718529854,NA,NA
"P_003","V2",9,5,"Block6.csv","Stimuli/HM08_HO.jpg","HM08_happy","happy","P",0.3990306,0.718529854,"P","correct"
"P_003","V2",10,5,"Block6.csv","Stimuli/BF07_AO.jpg","BF07_angry","angry","P",0.6173034,0.718529854,"N","incorrect"
"P_003","V2",11,5,"Block6.csv","Stimuli/HM05_SUR.jpg","HM05_surprised","surprised","P",0.4505819,0.718529854,NA,NA
"P_003","V2",12,5,"Block6.csv","Stimuli/WM04_HO.jpg","WM04_happy","happy","P",0.3181303,0.718529854,"P","correct"
"P_003","V2",13,5,"Block6.csv","Stimuli/WF11_SUR.jpg","WF11_surprised","surprised","P",0.3352305,0.718529854,NA,NA
"P_003","V2",14,5,"Block6.csv","Stimuli/AF02_AO.jpg","AF02_angry","angry","N",0.5827862,0.718529854,"N","correct"
"P_003","V2",15,5,"Block6.csv","Stimuli/WM02_AO.jpg","WM02_angry","angry","N",0.3177234,0.718529854,"N","correct"
"P_003","V2",16,5,"Block6.csv","Stimuli/WF06_SUR.jpg","WF06_surprised","surprised","P",0.4519226,0.718529854,NA,NA
"P_003","V2",17,5,"Block6.csv","Stimuli/AM03_HO.jpg","AM03_happy","happy","P",0.3007529,0.718529854,"P","correct"
"P_003","V2",18,5,"Block6.csv","Stimuli/WF13_SUR.jpg","WF13_surprised","surprised","P",0.2184663,0.718529854,NA,NA
"P_003","V2",19,5,"Block6.csv","Stimuli/AF12_AO.jpg","AF12_angry","angry","P",0.2676983,0.718529854,"N","incorrect"
"P_003","V2",0,6,"Block8.csv","Stimuli/AM04_AO.jpg","AM04_angry","angry","N",0.8355746,0.718529854,"N","correct"
"P_003","V2",1,6,"Block8.csv","Stimuli/AF03_SUR.jpg","AF03_surprised","surprised","P",0.2679679,0.718529854,NA,NA
"P_003","V2",2,6,"Block8.csv","Stimuli/BF01_AO.jpg","BF01_angry","angry","N",0.5018399,0.718529854,"N","correct"
"P_003","V2",3,6,"Block8.csv","Stimuli/AM03_SUR.jpg","AM03_surprised","surprised","P",0.2876714,0.718529854,NA,NA
"P_003","V2",4,6,"Block8.csv","Stimuli/BF16_HO.jpg","BF16_happy","happy","P",0.3366273,0.718529854,"P","correct"
"P_003","V2",5,6,"Block8.csv","Stimuli/HF01_SUR.jpg","HF01_surprised","surprised","P",0.3513075,0.718529854,NA,NA
"P_003","V2",6,6,"Block8.csv","Stimuli/WF01_HO.jpg","WF01_happy","happy","P",0.3520285,0.718529854,"P","correct"
"P_003","V2",7,6,"Block8.csv","Stimuli/WF08_SUR.jpg","WF08_surprised","surprised","P",0.4326947,0.718529854,NA,NA
"P_003","V2",8,6,"Block8.csv","Stimuli/BF15_AO.jpg","BF15_angry","angry","P",0.4023273,0.718529854,"N","incorrect"
"P_003","V2",9,6,"Block8.csv","Stimuli/BM18_HO.jpg","BM18_happy","happy","P",0.2180228,0.718529854,"P","correct"
"P_003","V2",10,6,"Block8.csv","Stimuli/WM06_AO.jpg","WM06_angry","angry","N",0.2685664,0.718529854,"N","correct"
"P_003","V2",11,6,"Block8.csv","Stimuli/AM06_HO.jpg","AM06_happy","happy","P",0.3524986,0.718529854,"P","correct"
"P_003","V2",12,6,"Block8.csv","Stimuli/BF13_SUR.jpg","BF13_surprised","surprised","P",0.417351,0.718529854,NA,NA
"P_003","V2",13,6,"Block8.csv","Stimuli/HM08_SUR.jpg","HM08_surprised","surprised","N",0.4193836,0.718529854,NA,NA
"P_003","V2",14,6,"Block8.csv","Stimuli/WM04_SUR.jpg","WM04_surprised","surprised","N",0.8026957,0.718529854,NA,NA
"P_003","V2",15,6,"Block8.csv","Stimuli/AF09_SUR.jpg","AF09_surprised","surprised","N",0.8016144,0.718529854,NA,NA
"P_003","V2",16,6,"Block8.csv","Stimuli/BF04_HO.jpg","BF04_happy","happy","P",0.3189345,0.718529854,"P","correct"
"P_003","V2",17,6,"Block8.csv","Stimuli/BM06_SUR.jpg","BM06_surprised","surprised","P",0.3502676,0.718529854,NA,NA
"P_003","V2",18,6,"Block8.csv","Stimuli/BM15_AO.jpg","BM15_angry","angry","N",0.3523326,0.718529854,"N","correct"
"P_003","V2",19,6,"Block8.csv","Stimuli/WM09_SUR.jpg","WM09_surprised","surprised","P",0.2517887,0.718529854,NA,NA
"P_003","V2",0,7,"Block3.csv","Stimuli/HF05_SUR.jpg","HF05_surprised","surprised","N",0.6683955,0.718529854,NA,NA
"P_003","V2",1,7,"Block3.csv","Stimuli/WF12_HO.jpg","WF12_happy","happy","P",0.3513767,0.718529854,"P","correct"
"P_003","V2",2,7,"Block3.csv","Stimuli/HM07_SUR.jpg","HM07_surprised","surprised","P",0.3184866,0.718529854,NA,NA
"P_003","V2",3,7,"Block3.csv","Stimuli/AF08_HO.jpg","AF08_happy","happy","P",0.3346164,0.718529854,"P","correct"
"P_003","V2",4,7,"Block3.csv","Stimuli/BF17_SUR.jpg","BF17_surprised","surprised","P",0.318049,0.718529854,NA,NA
"P_003","V2",5,7,"Block3.csv","Stimuli/BM03_HO.jpg","BM03_happy","happy","P",0.4337536,0.718529854,"P","correct"
"P_003","V2",6,7,"Block3.csv","Stimuli/BM05_SUR.jpg","BM05_surprised","surprised","N",0.185717,0.718529854,NA,NA
"P_003","V2",7,7,"Block3.csv","Stimuli/WF10_AO.jpg","WF10_angry","angry","N",0.5021585,0.718529854,"N","correct"
"P_003","V2",8,7,"Block3.csv","Stimuli/HM03_HO.jpg","HM03_happy","happy","P",0.367697,0.718529854,"P","correct"
"P_003","V2",9,7,"Block3.csv","Stimuli/HF07_AO.jpg","HF07_angry","angry","P",0.4506905,0.718529854,"N","incorrect"
"P_003","V2",10,7,"Block3.csv","Stimuli/WF05_SUR.jpg","WF05_surprised","surprised","P",0.4508785,0.718529854,NA,NA
"P_003","V2",11,7,"Block3.csv","Stimuli/AF07_AO.jpg","AF07_angry","angry","N",0.4180729,0.718529854,"N","correct"
"P_003","V2",12,7,"Block3.csv","Stimuli/HM11_AO.jpg","HM11_angry","angry","P",0.9024199,0.718529854,"N","incorrect"
"P_003","V2",13,7,"Block3.csv","Stimuli/AF02_SUR.jpg","AF02_surprised","surprised","P",0.7194804,0.718529854,NA,NA
"P_003","V2",14,7,"Block3.csv","Stimuli/AM10_SUR.jpg","AM10_surprised","surprised","P",0.4683905,0.718529854,NA,NA
"P_003","V2",15,7,"Block3.csv","Stimuli/BM09_SUR.jpg","BM09_surprised","surprised","P",0.3675279,0.718529854,NA,NA
"P_003","V2",16,7,"Block3.csv","Stimuli/WM08_HO.jpg","WM08_happy","happy","P",0.3014189,0.718529854,"P","correct"
"P_003","V2",17,7,"Block3.csv","Stimuli/BM02_AO.jpg","BM02_angry","angry","N",0.501727,0.718529854,"N","correct"
"P_003","V2",18,7,"Block3.csv","Stimuli/HF09_SUR.jpg","HF09_surprised","surprised","P",0.43505,0.718529854,NA,NA
"P_003","V2",19,7,"Block3.csv","Stimuli/WM11_SUR.jpg","WM11_surprised","surprised","P",0.3527906,0.718529854,NA,NA
"P_003","V2",0,8,"Block2.csv","Stimuli/AM01_SUR.jpg","AM01_surprised","surprised","N",1.2505216,0.718529854,NA,NA
"P_003","V2",1,8,"Block2.csv","Stimuli/AF07_HO.jpg","AF07_happy","happy","P",0.5410801,0.718529854,"P","correct"
"P_003","V2",2,8,"Block2.csv","Stimuli/WM13_SUR.jpg","WM13_surprised","surprised","N",0.6015554,0.718529854,NA,NA
"P_003","V2",3,8,"Block2.csv","Stimuli/HF04_SUR.jpg","HF04_surprised","surprised","P",0.5185017,0.718529854,NA,NA
"P_003","V2",4,8,"Block2.csv","Stimuli/BM17_SUR.jpg","BM17_surprised","surprised","N",0.6173702,0.718529854,NA,NA
"P_003","V2",5,8,"Block2.csv","Stimuli/WF04_SUR.jpg","WF04_surprised","surprised","P",0.4053078,0.718529854,NA,NA
"P_003","V2",6,8,"Block2.csv","Stimuli/BM02_HO.jpg","BM02_happy","happy","P",0.3509407,0.718529854,"P","correct"
"P_003","V2",7,8,"Block2.csv","Stimuli/BM07_SUR.jpg","BM07_surprised","surprised","N",0.6669168,0.718529854,NA,NA
"P_003","V2",8,8,"Block2.csv","Stimuli/AM09_SUR.jpg","AM09_surprised","surprised","P",0.6162219,0.718529854,NA,NA
"P_003","V2",9,8,"Block2.csv","Stimuli/AM10_AO.jpg","AM10_angry","angry","N",0.4014012,0.718529854,"N","correct"
"P_003","V2",10,8,"Block2.csv","Stimuli/BF01_HO.jpg","BF01_happy","happy","P",0.4015821,0.718529854,"P","correct"
"P_003","V2",11,8,"Block2.csv","Stimuli/WF05_AO.jpg","WF05_angry","angry","N",0.4010128,0.718529854,"N","correct"
"P_003","V2",12,8,"Block2.csv","Stimuli/HM06_AO.jpg","HM06_angry","angry","N",0.3172793,0.718529854,"N","correct"
"P_003","V2",13,8,"Block2.csv","Stimuli/BM01_AO.jpg","BM01_angry","angry","N",0.3837786,0.718529854,"N","correct"
"P_003","V2",14,8,"Block2.csv","Stimuli/WF10_HO.jpg","WF10_happy","happy","P",0.4518878,0.718529854,"P","correct"
"P_003","V2",15,8,"Block2.csv","Stimuli/BM03_SUR.jpg","BM03_surprised","surprised","P",0.4690554,0.718529854,NA,NA
"P_003","V2",16,8,"Block2.csv","Stimuli/HF07_HO.jpg","HF07_happy","happy","P",0.4524208,0.718529854,"P","correct"
"P_003","V2",17,8,"Block2.csv","Stimuli/BF20_SUR.jpg","BF20_surprised","surprised","N",0.5365764,0.718529854,NA,NA
"P_003","V2",18,8,"Block2.csv","Stimuli/HF02_SUR.jpg","HF02_surprised","surprised","P",0.3672199,0.718529854,NA,NA
"P_003","V2",19,8,"Block2.csv","Stimuli/HF05_AO.jpg","HF05_angry","angry","N",0.5338604,0.718529854,"N","correct"
"P_003","V2",0,9,"Block9.csv","Stimuli/AM02_SUR.jpg","AM02_surprised","surprised","P",0.5845733,0.718529854,NA,NA
"P_003","V2",1,9,"Block9.csv","Stimuli/WF03_HO.jpg","WF03_happy","happy","P",0.3358769,0.718529854,"P","correct"
"P_003","V2",2,9,"Block9.csv","Stimuli/BF16_SUR.jpg","BF16_surprised","surprised","P",0.4666264,0.718529854,NA,NA
"P_003","V2",3,9,"Block9.csv","Stimuli/AM06_AO.jpg","AM06_angry","angry","N",0.3665217,0.718529854,"N","correct"
"P_003","V2",4,9,"Block9.csv","Stimuli/HF10_SUR.jpg","HF10_surprised","surprised","P",0.4182786,0.718529854,NA,NA
"P_003","V2",5,9,"Block9.csv","Stimuli/WM06_SUR.jpg","WM06_surprised","surprised","P",1.1169677,0.718529854,NA,NA
"P_003","V2",6,9,"Block9.csv","Stimuli/HF01_HO.jpg","HF01_happy","happy","P",0.3839106,0.718529854,"P","correct"
"P_003","V2",7,9,"Block9.csv","Stimuli/BM18_AO.jpg","BM18_angry","angry","N",0.2682997,0.718529854,"N","correct"
"P_003","V2",8,9,"Block9.csv","Stimuli/BM16_SUR.jpg","BM16_surprised","surprised","P",0.5866199,0.718529854,NA,NA
"P_003","V2",9,9,"Block9.csv","Stimuli/BF10_SUR.jpg","BF10_surprised","surprised","P",0.6021576,0.718529854,NA,NA
"P_003","V2",10,9,"Block9.csv","Stimuli/WF01_AO.jpg","WF01_angry","angry","N",0.3355745,0.718529854,"N","correct"
"P_003","V2",11,9,"Block9.csv","Stimuli/BF15_SUR.jpg","BF15_surprised","surprised","N",0.5841918,0.718529854,NA,NA
"P_003","V2",12,9,"Block9.csv","Stimuli/WM10_AO.jpg","WM10_angry","angry","N",0.3025046,0.718529854,"N","correct"
"P_003","V2",13,9,"Block9.csv","Stimuli/AM08_HO.jpg","AM08_happy","happy","P",0.5351898,0.718529854,"P","correct"
"P_003","V2",14,9,"Block9.csv","Stimuli/HF03_HO.jpg","HF03_happy","happy","P",0.232968,0.718529854,"P","correct"
"P_003","V2",15,9,"Block9.csv","Stimuli/AM04_SUR.jpg","AM04_surprised","surprised","P",0.5867043,0.718529854,NA,NA
"P_003","V2",16,9,"Block9.csv","Stimuli/AF06_SUR.jpg","AF06_surprised","surprised","P",0.2349327,0.718529854,NA,NA
"P_003","V2",17,9,"Block9.csv","Stimuli/BF19_HO.jpg","BF19_happy","happy","P",0.2356217,0.718529854,"P","correct"
"P_003","V2",18,9,"Block9.csv","Stimuli/WM08_AO.jpg","WM08_angry","angry","N",0.2181002,0.718529854,"N","correct"
"P_003","V2",19,9,"Block9.csv","Stimuli/HM11_SUR.jpg","HM11_surprised","surprised","P",0.1677198,0.718529854,NA,NA
"P_007","V2",0,0,"Block9.csv","Stimuli/BM18_AO.jpg","BM18_angry","angry","P",0.6716193,0.387529435,"N","incorrect"
"P_007","V2",1,0,"Block9.csv","Stimuli/AM08_HO.jpg","AM08_happy","happy","P",1.4519618,0.387529435,"P","correct"
"P_007","V2",2,0,"Block9.csv","Stimuli/WM08_AO.jpg","WM08_angry","angry","None",NA,0.387529435,"N","no response"
"P_007","V2",3,0,"Block9.csv","Stimuli/WF01_AO.jpg","WF01_angry","angry","N",0.4034947,0.387529435,"N","correct"
"P_007","V2",4,0,"Block9.csv","Stimuli/HF03_HO.jpg","HF03_happy","happy","P",0.1688524,0.387529435,"P","correct"
"P_007","V2",5,0,"Block9.csv","Stimuli/WM10_AO.jpg","WM10_angry","angry","N",0.266696,0.387529435,"N","correct"
"P_007","V2",6,0,"Block9.csv","Stimuli/AF06_SUR.jpg","AF06_surprised","surprised","N",0.3866455,0.387529435,NA,NA
"P_007","V2",7,0,"Block9.csv","Stimuli/BF15_SUR.jpg","BF15_surprised","surprised","N",0.2685156,0.387529435,NA,NA
"P_007","V2",8,0,"Block9.csv","Stimuli/HF01_HO.jpg","HF01_happy","happy","P",0.2857074,0.387529435,"P","correct"
"P_007","V2",9,0,"Block9.csv","Stimuli/HF10_SUR.jpg","HF10_surprised","surprised","N",0.3518657,0.387529435,NA,NA
"P_007","V2",10,0,"Block9.csv","Stimuli/AM06_AO.jpg","AM06_angry","angry","N",0.3358543,0.387529435,"N","correct"
"P_007","V2",11,0,"Block9.csv","Stimuli/AM04_SUR.jpg","AM04_surprised","surprised","N",0.1695668,0.387529435,NA,NA
"P_007","V2",12,0,"Block9.csv","Stimuli/BF16_SUR.jpg","BF16_surprised","surprised","N",0.2493114,0.387529435,NA,NA
"P_007","V2",13,0,"Block9.csv","Stimuli/BF10_SUR.jpg","BF10_surprised","surprised","N",0.2199924,0.387529435,NA,NA
"P_007","V2",14,0,"Block9.csv","Stimuli/WM06_SUR.jpg","WM06_surprised","surprised","N",0.2019659,0.387529435,NA,NA
"P_007","V2",15,0,"Block9.csv","Stimuli/BM16_SUR.jpg","BM16_surprised","surprised","N",0.1359291,0.387529435,NA,NA
"P_007","V2",16,0,"Block9.csv","Stimuli/AM02_SUR.jpg","AM02_surprised","surprised","N",0.2044424,0.387529435,NA,NA
"P_007","V2",17,0,"Block9.csv","Stimuli/HM11_SUR.jpg","HM11_surprised","surprised","N",0.2006756,0.387529435,NA,NA
"P_007","V2",18,0,"Block9.csv","Stimuli/WF03_HO.jpg","WF03_happy","happy","P",0.080075,0.387529435,"P","correct"
"P_007","V2",19,0,"Block9.csv","Stimuli/BF19_HO.jpg","BF19_happy","happy","P",0.3364169,0.387529435,"P","correct"
"P_007","V2",0,1,"Block6.csv","Stimuli/WM02_AO.jpg","WM02_angry","angry","N",0.4001231,0.387529435,"N","correct"
"P_007","V2",1,1,"Block6.csv","Stimuli/BM11_AO.jpg","BM11_angry","angry","N",0.2152284,0.387529435,"N","correct"
"P_007","V2",2,1,"Block6.csv","Stimuli/BM15_SUR.jpg","BM15_surprised","surprised","N",0.2901221,0.387529435,NA,NA
"P_007","V2",3,1,"Block6.csv","Stimuli/BF05_SUR.jpg","BF05_surprised","surprised","N",0.2228535,0.387529435,NA,NA
"P_007","V2",4,1,"Block6.csv","Stimuli/AM03_HO.jpg","AM03_happy","happy","P",0.3374553,0.387529435,"P","correct"
"P_007","V2",5,1,"Block6.csv","Stimuli/WF15_SUR.jpg","WF15_surprised","surprised","N",0.2370394,0.387529435,NA,NA
"P_007","V2",6,1,"Block6.csv","Stimuli/WF06_SUR.jpg","WF06_surprised","surprised","N",0.3848587,0.387529435,NA,NA
"P_007","V2",7,1,"Block6.csv","Stimuli/WF13_SUR.jpg","WF13_surprised","surprised","N",0.2684352,0.387529435,NA,NA
"P_007","V2",8,1,"Block6.csv","Stimuli/WF11_SUR.jpg","WF11_surprised","surprised","N",0.1852442,0.387529435,NA,NA
"P_007","V2",9,1,"Block6.csv","Stimuli/WM04_HO.jpg","WM04_happy","happy","P",0.1525218,0.387529435,"P","correct"
"P_007","V2",10,1,"Block6.csv","Stimuli/AF10_SUR.jpg","AF10_surprised","surprised","N",0.5824458,0.387529435,NA,NA
"P_007","V2",11,1,"Block6.csv","Stimuli/WM12_SUR.jpg","WM12_surprised","surprised","N",0.3033077,0.387529435,NA,NA
"P_007","V2",12,1,"Block6.csv","Stimuli/BF13_HO.jpg","BF13_happy","happy","P",0.2880044,0.387529435,"P","correct"
"P_007","V2",13,1,"Block6.csv","Stimuli/HM08_HO.jpg","HM08_happy","happy","P",0.1685222,0.387529435,"P","correct"
"P_007","V2",14,1,"Block6.csv","Stimuli/HM05_SUR.jpg","HM05_surprised","surprised","N",0.3862502,0.387529435,NA,NA
"P_007","V2",15,1,"Block6.csv","Stimuli/AF12_AO.jpg","AF12_angry","angry","N",0.3142195,0.387529435,"N","correct"
"P_007","V2",16,1,"Block6.csv","Stimuli/BM12_HO.jpg","BM12_happy","happy","P",0.3824796,0.387529435,"P","correct"
"P_007","V2",17,1,"Block6.csv","Stimuli/HM01_SUR.jpg","HM01_surprised","surprised","P",0.182061,0.387529435,NA,NA
"P_007","V2",18,1,"Block6.csv","Stimuli/BF07_AO.jpg","BF07_angry","angry","N",0.3681168,0.387529435,"N","correct"
"P_007","V2",19,1,"Block6.csv","Stimuli/AF02_AO.jpg","AF02_angry","angry","N",0.333221,0.387529435,"N","correct"
"P_007","V2",0,2,"Block1.csv","Stimuli/HF03_SUR.jpg","HF03_surprised","surprised","N",0.6183845,0.387529435,NA,NA
"P_007","V2",1,2,"Block1.csv","Stimuli/HF05_HO.jpg","HF05_happy","happy","P",0.3515647,0.387529435,"P","correct"
"P_007","V2",2,2,"Block1.csv","Stimuli/WF04_AO.jpg","WF04_angry","angry","N",0.5355853,0.387529435,"N","correct"
"P_007","V2",3,2,"Block1.csv","Stimuli/HF04_AO.jpg","HF04_angry","angry","N",0.4678563,0.387529435,"N","correct"
"P_007","V2",4,2,"Block1.csv","Stimuli/BF19_AO.jpg","BF19_angry","angry","N",0.5186615,0.387529435,"N","correct"
"P_007","V2",5,2,"Block1.csv","Stimuli/AM08_SUR.jpg","AM08_surprised","surprised","N",0.5188471,0.387529435,NA,NA
"P_007","V2",6,2,"Block1.csv","Stimuli/AF02_HO.jpg","AF02_happy","happy","P",0.5829841,0.387529435,"P","correct"
"P_007","V2",7,2,"Block1.csv","Stimuli/BM13_SUR.jpg","BM13_surprised","surprised","N",0.5516056,0.387529435,NA,NA
"P_007","V2",8,2,"Block1.csv","Stimuli/WF14_SUR.jpg","WF14_surprised","surprised","N",0.520334,0.387529435,NA,NA
"P_007","V2",9,2,"Block1.csv","Stimuli/WM05_SUR.jpg","WM05_surprised","surprised","N",0.5185994,0.387529435,NA,NA
"P_007","V2",10,2,"Block1.csv","Stimuli/AM10_HO.jpg","AM10_happy","happy","P",0.6014183,0.387529435,"P","correct"
"P_007","V2",11,2,"Block1.csv","Stimuli/AF11_SUR.jpg","AF11_surprised","surprised","N",0.6159587,0.387529435,NA,NA
"P_007","V2",12,2,"Block1.csv","Stimuli/WM13_AO.jpg","WM13_angry","angry","N",0.4839109,0.387529435,"N","correct"
"P_007","V2",13,2,"Block1.csv","Stimuli/WF03_SUR.jpg","WF03_surprised","surprised","P",0.5687596,0.387529435,NA,NA
"P_007","V2",14,2,"Block1.csv","Stimuli/AM09_AO.jpg","AM09_angry","angry","N",0.4525355,0.387529435,"N","correct"
"P_007","V2",15,2,"Block1.csv","Stimuli/WF05_HO.jpg","WF05_happy","happy","P",0.3849853,0.387529435,"P","correct"
"P_007","V2",16,2,"Block1.csv","Stimuli/WM10_SUR.jpg","WM10_surprised","surprised","N",0.5672721,0.387529435,NA,NA
"P_007","V2",17,2,"Block1.csv","Stimuli/HM09_SUR.jpg","HM09_surprised","surprised","N",0.6519317,0.387529435,NA,NA
"P_007","V2",18,2,"Block1.csv","Stimuli/BM01_HO.jpg","BM01_happy","happy","P",0.5188444,0.387529435,"P","correct"
"P_007","V2",19,2,"Block1.csv","Stimuli/BM02_SUR.jpg","BM02_surprised","surprised","N",0.5847409,0.387529435,NA,NA
"P_007","V2",0,3,"Block7.csv","Stimuli/BM14_SUR.jpg","BM14_surprised","surprised","N",0.6171587,0.387529435,NA,NA
"P_007","V2",1,3,"Block7.csv","Stimuli/AF05_SUR.jpg","AF05_surprised","surprised","N",0.568594,0.387529435,NA,NA
"P_007","V2",2,3,"Block7.csv","Stimuli/AM07_SUR.jpg","AM07_surprised","surprised","N",0.5841129,0.387529435,NA,NA
"P_007","V2",3,3,"Block7.csv","Stimuli/HM10_SUR.jpg","HM10_surprised","surprised","N",0.7512742,0.387529435,NA,NA
"P_007","V2",4,3,"Block7.csv","Stimuli/BM12_AO.jpg","BM12_angry","angry","N",0.7346251,0.387529435,"N","correct"
"P_007","V2",5,3,"Block7.csv","Stimuli/WM02_SUR.jpg","WM02_surprised","surprised","N",0.7344271,0.387529435,NA,NA
"P_007","V2",6,3,"Block7.csv","Stimuli/AM04_HO.jpg","AM04_happy","happy","P",0.7193526,0.387529435,"P","correct"
"P_007","V2",7,3,"Block7.csv","Stimuli/WF13_HO.jpg","WF13_happy","happy","P",0.7344128,0.387529435,"P","correct"
"P_007","V2",8,3,"Block7.csv","Stimuli/AF12_SUR.jpg","AF12_surprised","surprised","N",0.6669152,0.387529435,NA,NA
"P_007","V2",9,3,"Block7.csv","Stimuli/AF08_AO.jpg","AF08_angry","angry","N",0.5022128,0.387529435,"N","correct"
"P_007","V2",10,3,"Block7.csv","Stimuli/BF13_AO.jpg","BF13_angry","angry","N",0.5174502,0.387529435,"N","correct"
"P_007","V2",11,3,"Block7.csv","Stimuli/HF03_AO.jpg","HF03_angry","angry","N",0.552481,0.387529435,"N","correct"
"P_007","V2",12,3,"Block7.csv","Stimuli/WM04_AO.jpg","WM04_angry","angry","N",0.4702426,0.387529435,"N","correct"
"P_007","V2",13,3,"Block7.csv","Stimuli/BF07_SUR.jpg","BF07_surprised","surprised","P",0.65109,0.387529435,NA,NA
"P_007","V2",14,3,"Block7.csv","Stimuli/HM06_SUR.jpg","HM06_surprised","surprised","N",0.5180981,0.387529435,NA,NA
"P_007","V2",15,3,"Block7.csv","Stimuli/BF01_SUR.jpg","BF01_surprised","surprised","N",0.6504058,0.387529435,NA,NA
"P_007","V2",16,3,"Block7.csv","Stimuli/BF18_SUR.jpg","BF18_surprised","surprised","P",0.6173422,0.387529435,NA,NA
"P_007","V2",17,3,"Block7.csv","Stimuli/BM15_HO.jpg","BM15_happy","happy","P",0.5349688,0.387529435,"P","correct"
"P_007","V2",18,3,"Block7.csv","Stimuli/HM11_HO.jpg","HM11_happy","happy","P",0.5147601,0.387529435,"P","correct"
"P_007","V2",19,3,"Block7.csv","Stimuli/BF15_HO.jpg","BF15_happy","happy","P",0.3523327,0.387529435,"P","correct"
"P_007","V2",0,4,"Block5.csv","Stimuli/BF07_HO.jpg","BF07_happy","happy","P",0.6830252,0.387529435,"P","correct"
"P_007","V2",1,4,"Block5.csv","Stimuli/HM05_AO.jpg","HM05_angry","angry","N",0.4360076,0.387529435,"N","correct"
"P_007","V2",2,4,"Block5.csv","Stimuli/HM03_SUR.jpg","HM03_surprised","surprised","N",0.6178962,0.387529435,NA,NA
"P_007","V2",3,4,"Block5.csv","Stimuli/BM11_HO.jpg","BM11_happy","happy","P",0.3526071,0.387529435,"P","correct"
"P_007","V2",4,4,"Block5.csv","Stimuli/BM12_SUR.jpg","BM12_surprised","surprised","P",0.6199793,0.387529435,NA,NA
"P_007","V2",5,4,"Block5.csv","Stimuli/BF05_AO.jpg","BF05_angry","angry","N",0.4843832,0.387529435,"N","correct"
"P_007","V2",6,4,"Block5.csv","Stimuli/HM02_SUR.jpg","HM02_surprised","surprised","N",0.5859562,0.387529435,NA,NA
"P_007","V2",7,4,"Block5.csv","Stimuli/HM06_HO.jpg","HM06_happy","happy","P",0.4673613,0.387529435,"P","correct"
"P_007","V2",8,4,"Block5.csv","Stimuli/BM08_SUR.jpg","BM08_surprised","surprised","N",0.4701163,0.387529435,NA,NA
"P_007","V2",9,4,"Block5.csv","Stimuli/WM02_HO.jpg","WM02_happy","happy","P",0.3186208,0.387529435,"P","correct"
"P_007","V2",10,4,"Block5.csv","Stimuli/WF12_SUR.jpg","WF12_surprised","surprised","N",0.4506825,0.387529435,NA,NA
"P_007","V2",11,4,"Block5.csv","Stimuli/WM07_SUR.jpg","WM07_surprised","surprised","N",0.3357086,0.387529435,NA,NA
"P_007","V2",12,4,"Block5.csv","Stimuli/WF13_AO.jpg","WF13_angry","angry","N",0.585423,0.387529435,"N","correct"
"P_007","V2",13,4,"Block5.csv","Stimuli/AF12_HO.jpg","AF12_happy","happy","P",0.6185152,0.387529435,"P","correct"
"P_007","V2",14,4,"Block5.csv","Stimuli/AF10_AO.jpg","AF10_angry","angry","N",0.4542836,0.387529435,"N","correct"
"P_007","V2",15,4,"Block5.csv","Stimuli/AF08_SUR.jpg","AF08_surprised","surprised","N",0.9208699,0.387529435,NA,NA
"P_007","V2",16,4,"Block5.csv","Stimuli/BF04_SUR.jpg","BF04_surprised","surprised","P",0.435983,0.387529435,NA,NA
"P_007","V2",17,4,"Block5.csv","Stimuli/WF02_SUR.jpg","WF02_surprised","surprised","N",0.4843405,0.387529435,NA,NA
"P_007","V2",18,4,"Block5.csv","Stimuli/BM05_AO.jpg","BM05_angry","angry","N",0.4840495,0.387529435,"N","correct"
"P_007","V2",19,4,"Block5.csv","Stimuli/BF14_SUR.jpg","BF14_surprised","surprised","P",0.4837925,0.387529435,NA,NA
"P_007","V2",0,5,"Block3.csv","Stimuli/WF12_HO.jpg","WF12_happy","happy","P",0.5185268,0.387529435,"P","correct"
"P_007","V2",1,5,"Block3.csv","Stimuli/HF05_SUR.jpg","HF05_surprised","surprised","N",0.3347641,0.387529435,NA,NA
"P_007","V2",2,5,"Block3.csv","Stimuli/HM07_SUR.jpg","HM07_surprised","surprised","N",0.3339388,0.387529435,NA,NA
"P_007","V2",3,5,"Block3.csv","Stimuli/WF05_SUR.jpg","WF05_surprised","surprised","N",0.6008252,0.387529435,NA,NA
"P_007","V2",4,5,"Block3.csv","Stimuli/WM11_SUR.jpg","WM11_surprised","surprised","N",0.4683516,0.387529435,NA,NA
"P_007","V2",5,5,"Block3.csv","Stimuli/BF17_SUR.jpg","BF17_surprised","surprised","N",0.5836089,0.387529435,NA,NA
"P_007","V2",6,5,"Block3.csv","Stimuli/AM10_SUR.jpg","AM10_surprised","surprised","N",0.3847484,0.387529435,NA,NA
"P_007","V2",7,5,"Block3.csv","Stimuli/BM03_HO.jpg","BM03_happy","happy","P",0.3337715,0.387529435,"P","correct"
"P_007","V2",8,5,"Block3.csv","Stimuli/HM03_HO.jpg","HM03_happy","happy","P",0.4350124,0.387529435,"P","correct"
"P_007","V2",9,5,"Block3.csv","Stimuli/BM09_SUR.jpg","BM09_surprised","surprised","N",0.3164944,0.387529435,NA,NA
"P_007","V2",10,5,"Block3.csv","Stimuli/AF07_AO.jpg","AF07_angry","angry","N",0.4507431,0.387529435,"N","correct"
"P_007","V2",11,5,"Block3.csv","Stimuli/BM02_AO.jpg","BM02_angry","angry","N",0.4001097,0.387529435,"N","correct"
"P_007","V2",12,5,"Block3.csv","Stimuli/WM08_HO.jpg","WM08_happy","happy","P",0.5691964,0.387529435,"P","correct"
"P_007","V2",13,5,"Block3.csv","Stimuli/AF02_SUR.jpg","AF02_surprised","surprised","N",0.4516831,0.387529435,NA,NA
"P_007","V2",14,5,"Block3.csv","Stimuli/HF09_SUR.jpg","HF09_surprised","surprised","P",0.5183958,0.387529435,NA,NA
"P_007","V2",15,5,"Block3.csv","Stimuli/HF07_AO.jpg","HF07_angry","angry","N",0.4024332,0.387529435,"N","correct"
"P_007","V2",16,5,"Block3.csv","Stimuli/HM11_AO.jpg","HM11_angry","angry","N",0.5352277,0.387529435,"N","correct"
"P_007","V2",17,5,"Block3.csv","Stimuli/BM05_SUR.jpg","BM05_surprised","surprised","N",0.4854339,0.387529435,NA,NA
"P_007","V2",18,5,"Block3.csv","Stimuli/WF10_AO.jpg","WF10_angry","angry","N",0.4847655,0.387529435,"N","correct"
"P_007","V2",19,5,"Block3.csv","Stimuli/AF08_HO.jpg","AF08_happy","happy","P",0.4686712,0.387529435,"P","correct"
"P_007","V2",0,6,"Block2.csv","Stimuli/WM13_SUR.jpg","WM13_surprised","surprised","N",0.5662667,0.387529435,NA,NA
"P_007","V2",1,6,"Block2.csv","Stimuli/AM01_SUR.jpg","AM01_surprised","surprised","N",0.4711842,0.387529435,NA,NA
"P_007","V2",2,6,"Block2.csv","Stimuli/BM03_SUR.jpg","BM03_surprised","surprised","P",0.653184,0.387529435,NA,NA
"P_007","V2",3,6,"Block2.csv","Stimuli/HF04_SUR.jpg","HF04_surprised","surprised","P",0.6677683,0.387529435,NA,NA
"P_007","V2",4,6,"Block2.csv","Stimuli/AF07_HO.jpg","AF07_happy","happy","P",0.670832,0.387529435,"P","correct"
"P_007","V2",5,6,"Block2.csv","Stimuli/BM01_AO.jpg","BM01_angry","angry","N",0.4009063,0.387529435,"N","correct"
"P_007","V2",6,6,"Block2.csv","Stimuli/WF05_AO.jpg","WF05_angry","angry","N",0.4352258,0.387529435,"N","correct"
"P_007","V2",7,6,"Block2.csv","Stimuli/BM17_SUR.jpg","BM17_surprised","surprised","N",0.4679998,0.387529435,NA,NA
"P_007","V2",8,6,"Block2.csv","Stimuli/HF05_AO.jpg","HF05_angry","angry","N",0.4853446,0.387529435,"N","correct"
"P_007","V2",9,6,"Block2.csv","Stimuli/AM09_SUR.jpg","AM09_surprised","surprised","N",0.3672692,0.387529435,NA,NA
"P_007","V2",10,6,"Block2.csv","Stimuli/AM10_AO.jpg","AM10_angry","angry","N",0.4515581,0.387529435,"N","correct"
"P_007","V2",11,6,"Block2.csv","Stimuli/BF01_HO.jpg","BF01_happy","happy","P",0.3512859,0.387529435,"P","correct"
"P_007","V2",12,6,"Block2.csv","Stimuli/WF10_HO.jpg","WF10_happy","happy","P",0.2872664,0.387529435,"P","correct"
"P_007","V2",13,6,"Block2.csv","Stimuli/BF20_SUR.jpg","BF20_surprised","surprised","N",0.2848738,0.387529435,NA,NA
"P_007","V2",14,6,"Block2.csv","Stimuli/BM07_SUR.jpg","BM07_surprised","surprised","N",0.5173513,0.387529435,NA,NA
"P_007","V2",15,6,"Block2.csv","Stimuli/HF02_SUR.jpg","HF02_surprised","surprised","P",0.5024058,0.387529435,NA,NA
"P_007","V2",16,6,"Block2.csv","Stimuli/HM06_AO.jpg","HM06_angry","angry","N",0.4518393,0.387529435,"N","correct"
"P_007","V2",17,6,"Block2.csv","Stimuli/HF07_HO.jpg","HF07_happy","happy","P",0.6344463,0.387529435,"P","correct"
"P_007","V2",18,6,"Block2.csv","Stimuli/WF04_SUR.jpg","WF04_surprised","surprised","P",0.5700132,0.387529435,NA,NA
"P_007","V2",19,6,"Block2.csv","Stimuli/BM02_HO.jpg","BM02_happy","happy","P",0.5497611,0.387529435,"P","correct"
"P_007","V2",0,7,"Block10.csv","Stimuli/HF01_AO.jpg","HF01_angry","angry","N",0.7505659,0.387529435,"N","correct"
"P_007","V2",1,7,"Block10.csv","Stimuli/BF16_AO.jpg","BF16_angry","angry","N",0.3837229,0.387529435,"N","correct"
"P_007","V2",2,7,"Block10.csv","Stimuli/AM06_SUR.jpg","AM06_surprised","surprised","N",0.4349478,0.387529435,NA,NA
"P_007","V2",3,7,"Block10.csv","Stimuli/WF01_SUR.jpg","WF01_surprised","surprised","N",0.5218277,0.387529435,NA,NA
"P_007","V2",4,7,"Block10.csv","Stimuli/BM01_SUR.jpg","BM01_surprised","surprised","N",0.616444,0.387529435,NA,NA
"P_007","V2",5,7,"Block10.csv","Stimuli/BM04_SUR.jpg","BM04_surprised","surprised","N",0.6211385,0.387529435,NA,NA
"P_007","V2",6,7,"Block10.csv","Stimuli/AM03_AO.jpg","AM03_angry","angry","N",0.5679803,0.387529435,"N","correct"
"P_007","V2",7,7,"Block10.csv","Stimuli/BF09_SUR.jpg","BF09_surprised","surprised","N",0.5519791,0.387529435,NA,NA
"P_007","V2",8,7,"Block10.csv","Stimuli/HF04_HO.jpg","HF04_happy","happy","P",0.5846935,0.387529435,"P","correct"
"P_007","V2",9,7,"Block10.csv","Stimuli/WF04_HO.jpg","WF04_happy","happy","P",0.4852998,0.387529435,"P","correct"
"P_007","V2",10,7,"Block10.csv","Stimuli/HF08_SUR.jpg","HF08_surprised","surprised","P",0.6512689,0.387529435,NA,NA
"P_007","V2",11,7,"Block10.csv","Stimuli/WM08_SUR.jpg","WM08_surprised","surprised","P",0.5853054,0.387529435,NA,NA
"P_007","V2",12,7,"Block10.csv","Stimuli/WF03_AO.jpg","WF03_angry","angry","N",0.4840461,0.387529435,"N","correct"
"P_007","V2",13,7,"Block10.csv","Stimuli/AM05_SUR.jpg","AM05_surprised","surprised","N",0.4838202,0.387529435,NA,NA
"P_007","V2",14,7,"Block10.csv","Stimuli/BF12_SUR.jpg","BF12_surprised","surprised","P",0.5680577,0.387529435,NA,NA
"P_007","V2",15,7,"Block10.csv","Stimuli/AM09_HO.jpg","AM09_happy","happy","P",0.6695218,0.387529435,"P","correct"
"P_007","V2",16,7,"Block10.csv","Stimuli/WM13_HO.jpg","WM13_happy","happy","P",0.569473,0.387529435,"P","correct"
"P_007","V2",17,7,"Block10.csv","Stimuli/BF19_SUR.jpg","BF19_surprised","surprised","P",0.6357058,0.387529435,NA,NA
"P_007","V2",18,7,"Block10.csv","Stimuli/WM10_HO.jpg","WM10_happy","happy","P",0.5683895,0.387529435,"P","correct"
"P_007","V2",19,7,"Block10.csv","Stimuli/AM08_AO.jpg","AM08_angry","angry","N",0.4697528,0.387529435,"N","correct"
"P_007","V2",0,8,"Block8.csv","Stimuli/AM06_HO.jpg","AM06_happy","happy","P",0.368015,0.387529435,"P","correct"
"P_007","V2",1,8,"Block8.csv","Stimuli/BM06_SUR.jpg","BM06_surprised","surprised","P",0.5838361,0.387529435,NA,NA
"P_007","V2",2,8,"Block8.csv","Stimuli/BF16_HO.jpg","BF16_happy","happy","P",0.5671147,0.387529435,"P","correct"
"P_007","V2",3,8,"Block8.csv","Stimuli/WF01_HO.jpg","WF01_happy","happy","P",0.4843891,0.387529435,"P","correct"
"P_007","V2",4,8,"Block8.csv","Stimuli/WF08_SUR.jpg","WF08_surprised","surprised","P",0.5853894,0.387529435,NA,NA
"P_007","V2",5,8,"Block8.csv","Stimuli/AF09_SUR.jpg","AF09_surprised","surprised","N",0.4772928,0.387529435,NA,NA
"P_007","V2",6,8,"Block8.csv","Stimuli/WM09_SUR.jpg","WM09_surprised","surprised","N",0.5359669,0.387529435,NA,NA
"P_007","V2",7,8,"Block8.csv","Stimuli/AM04_AO.jpg","AM04_angry","angry","N",0.501752,0.387529435,"N","correct"
"P_007","V2",8,8,"Block8.csv","Stimuli/BF04_HO.jpg","BF04_happy","happy","P",0.4020763,0.387529435,"P","correct"
"P_007","V2",9,8,"Block8.csv","Stimuli/WM06_AO.jpg","WM06_angry","angry","N",0.4042412,0.387529435,"N","correct"
"P_007","V2",10,8,"Block8.csv","Stimuli/BM15_AO.jpg","BM15_angry","angry","N",0.4681535,0.387529435,"N","correct"
"P_007","V2",11,8,"Block8.csv","Stimuli/AM03_SUR.jpg","AM03_surprised","surprised","N",0.4680157,0.387529435,NA,NA
"P_007","V2",12,8,"Block8.csv","Stimuli/AF03_SUR.jpg","AF03_surprised","surprised","N",0.467162,0.387529435,NA,NA
"P_007","V2",13,8,"Block8.csv","Stimuli/WM04_SUR.jpg","WM04_surprised","surprised","N",0.535019,0.387529435,NA,NA
"P_007","V2",14,8,"Block8.csv","Stimuli/BM18_HO.jpg","BM18_happy","happy","P",0.5367043,0.387529435,"P","correct"
"P_007","V2",15,8,"Block8.csv","Stimuli/HM08_SUR.jpg","HM08_surprised","surprised","N",0.4684288,0.387529435,NA,NA
"P_007","V2",16,8,"Block8.csv","Stimuli/BF15_AO.jpg","BF15_angry","angry","N",0.7204114,0.387529435,"N","correct"
"P_007","V2",17,8,"Block8.csv","Stimuli/BF01_AO.jpg","BF01_angry","angry","N",0.6347611,0.387529435,"N","correct"
"P_007","V2",18,8,"Block8.csv","Stimuli/BF13_SUR.jpg","BF13_surprised","surprised","P",0.7346932,0.387529435,NA,NA
"P_007","V2",19,8,"Block8.csv","Stimuli/HF01_SUR.jpg","HF01_surprised","surprised","N",0.5853101,0.387529435,NA,NA
"P_007","V2",0,9,"Block4.csv","Stimuli/HM08_AO.jpg","HM08_angry","angry","N",0.4842027,0.387529435,"N","correct"
"P_007","V2",1,9,"Block4.csv","Stimuli/WM03_SUR.jpg","WM03_surprised","surprised","N",0.7184917,0.387529435,NA,NA
"P_007","V2",2,9,"Block4.csv","Stimuli/BM18_SUR.jpg","BM18_surprised","surprised","N",0.5528628,0.387529435,NA,NA
"P_007","V2",3,9,"Block4.csv","Stimuli/AF01_SUR.jpg","AF01_surprised","surprised","N",0.5212398,0.387529435,NA,NA
"P_007","V2",4,9,"Block4.csv","Stimuli/BF05_HO.jpg","BF05_happy","happy","P",0.4021954,0.387529435,"P","correct"
"P_007","V2",5,9,"Block4.csv","Stimuli/WF10_SUR.jpg","WF10_surprised","surprised","N",0.5994325,0.387529435,NA,NA
"P_007","V2",6,9,"Block4.csv","Stimuli/BF03_SUR.jpg","BF03_surprised","surprised","N",0.6690561,0.387529435,NA,NA
"P_007","V2",7,9,"Block4.csv","Stimuli/WF07_SUR.jpg","WF07_surprised","surprised","P",0.4518788,0.387529435,NA,NA
"P_007","V2",8,9,"Block4.csv","Stimuli/WF12_AO.jpg","WF12_angry","angry","N",0.4494507,0.387529435,"N","correct"
"P_007","V2",9,9,"Block4.csv","Stimuli/HM03_AO.jpg","HM03_angry","angry","N",0.4857109,0.387529435,"N","correct"
"P_007","V2",10,9,"Block4.csv","Stimuli/WM06_HO.jpg","WM06_happy","happy","P",0.4851352,0.387529435,"P","correct"
"P_007","V2",11,9,"Block4.csv","Stimuli/BM11_SUR.jpg","BM11_surprised","surprised","N",0.634137,0.387529435,NA,NA
"P_007","V2",12,9,"Block4.csv","Stimuli/AF07_SUR.jpg","AF07_surprised","surprised","N",0.5346271,0.387529435,NA,NA
"P_007","V2",13,9,"Block4.csv","Stimuli/BM03_AO.jpg","BM03_angry","angry","N",0.5517685,0.387529435,"N","correct"
"P_007","V2",14,9,"Block4.csv","Stimuli/HM05_HO.jpg","HM05_happy","happy","P",0.6682195,0.387529435,"P","correct"
"P_007","V2",15,9,"Block4.csv","Stimuli/BF04_AO.jpg","BF04_angry","angry","N",0.535439,0.387529435,"N","correct"
"P_007","V2",16,9,"Block4.csv","Stimuli/AF10_HO.jpg","AF10_happy","happy","P",0.517266,0.387529435,"P","correct"
"P_007","V2",17,9,"Block4.csv","Stimuli/BM05_HO.jpg","BM05_happy","happy","P",0.5524519,0.387529435,"P","correct"
"P_007","V2",18,9,"Block4.csv","Stimuli/HF07_SUR.jpg","HF07_surprised","surprised","N",0.4374785,0.387529435,NA,NA
"P_007","V2",19,9,"Block4.csv","Stimuli/AM11_SUR.jpg","AM11_surprised","surprised","N",0.3515405,0.387529435,NA,NA
"P_009","V2",0,0,"Block1.csv","Stimuli/BM02_SUR.jpg","BM02_surprised","surprised","N",1.1957297,-0.173347143,NA,NA
"P_009","V2",1,0,"Block1.csv","Stimuli/AF11_SUR.jpg","AF11_surprised","surprised","N",0.7846014,-0.173347143,NA,NA
"P_009","V2",2,0,"Block1.csv","Stimuli/WF05_HO.jpg","WF05_happy","happy","P",0.5032562,-0.173347143,"P","correct"
"P_009","V2",3,0,"Block1.csv","Stimuli/WF14_SUR.jpg","WF14_surprised","surprised","P",0.7841294,-0.173347143,NA,NA
"P_009","V2",4,0,"Block1.csv","Stimuli/HF03_SUR.jpg","HF03_surprised","surprised","N",1.0692367,-0.173347143,NA,NA
"P_009","V2",5,0,"Block1.csv","Stimuli/HF04_AO.jpg","HF04_angry","angry","N",0.4871113,-0.173347143,"N","correct"
"P_009","V2",6,0,"Block1.csv","Stimuli/WF03_SUR.jpg","WF03_surprised","surprised","N",0.9846244,-0.173347143,NA,NA
"P_009","V2",7,0,"Block1.csv","Stimuli/WM10_SUR.jpg","WM10_surprised","surprised","P",1.0188618,-0.173347143,NA,NA
"P_009","V2",8,0,"Block1.csv","Stimuli/AF02_HO.jpg","AF02_happy","happy","P",0.5015229,-0.173347143,"P","correct"
"P_009","V2",9,0,"Block1.csv","Stimuli/WF04_AO.jpg","WF04_angry","angry","N",0.4848302,-0.173347143,"N","correct"
"P_009","V2",10,0,"Block1.csv","Stimuli/BM01_HO.jpg","BM01_happy","happy","P",0.4864191,-0.173347143,"P","correct"
"P_009","V2",11,0,"Block1.csv","Stimuli/BM13_SUR.jpg","BM13_surprised","surprised","N",1.2844824,-0.173347143,NA,NA
"P_009","V2",12,0,"Block1.csv","Stimuli/BF19_AO.jpg","BF19_angry","angry","N",1.4178128,-0.173347143,"N","correct"
"P_009","V2",13,0,"Block1.csv","Stimuli/AM09_AO.jpg","AM09_angry","angry","N",0.5689986,-0.173347143,"N","correct"
"P_009","V2",14,0,"Block1.csv","Stimuli/WM13_AO.jpg","WM13_angry","angry","N",0.60226,-0.173347143,"N","correct"
"P_009","V2",15,0,"Block1.csv","Stimuli/HF05_HO.jpg","HF05_happy","happy","P",0.4856398,-0.173347143,"P","correct"
"P_009","V2",16,0,"Block1.csv","Stimuli/AM08_SUR.jpg","AM08_surprised","surprised","N",1.4363037,-0.173347143,NA,NA
"P_009","V2",17,0,"Block1.csv","Stimuli/HM09_SUR.jpg","HM09_surprised","surprised","N",1.2031282,-0.173347143,NA,NA
"P_009","V2",18,0,"Block1.csv","Stimuli/AM10_HO.jpg","AM10_happy","happy","P",0.4861395,-0.173347143,"P","correct"
"P_009","V2",19,0,"Block1.csv","Stimuli/WM05_SUR.jpg","WM05_surprised","surprised","P",1.2007773,-0.173347143,NA,NA
"P_009","V2",0,1,"Block9.csv","Stimuli/BM18_AO.jpg","BM18_angry","angry","N",0.9689956,-0.173347143,"N","correct"
"P_009","V2",1,1,"Block9.csv","Stimuli/AM02_SUR.jpg","AM02_surprised","surprised","P",0.6859386,-0.173347143,NA,NA
"P_009","V2",2,1,"Block9.csv","Stimuli/WF01_AO.jpg","WF01_angry","angry","N",0.4023012,-0.173347143,"N","correct"
"P_009","V2",3,1,"Block9.csv","Stimuli/BM16_SUR.jpg","BM16_surprised","surprised","N",1.3996574,-0.173347143,NA,NA
"P_009","V2",4,1,"Block9.csv","Stimuli/WF03_HO.jpg","WF03_happy","happy","P",0.4204531,-0.173347143,"P","correct"
"P_009","V2",5,1,"Block9.csv","Stimuli/BF16_SUR.jpg","BF16_surprised","surprised","N",0.4540324,-0.173347143,NA,NA
"P_009","V2",6,1,"Block9.csv","Stimuli/AM08_HO.jpg","AM08_happy","happy","P",0.4528644,-0.173347143,"P","correct"
"P_009","V2",7,1,"Block9.csv","Stimuli/AM06_AO.jpg","AM06_angry","angry","N",0.3866781,-0.173347143,"N","correct"
"P_009","V2",8,1,"Block9.csv","Stimuli/HM11_SUR.jpg","HM11_surprised","surprised","P",1.0191187,-0.173347143,NA,NA
"P_009","V2",9,1,"Block9.csv","Stimuli/BF19_HO.jpg","BF19_happy","happy","P",0.6032048,-0.173347143,"P","correct"
"P_009","V2",10,1,"Block9.csv","Stimuli/WM06_SUR.jpg","WM06_surprised","surprised","None",NA,-0.173347143,NA,NA
"P_009","V2",11,1,"Block9.csv","Stimuli/BF10_SUR.jpg","BF10_surprised","surprised","N",0.9165647,-0.173347143,NA,NA
"P_009","V2",12,1,"Block9.csv","Stimuli/HF03_HO.jpg","HF03_happy","happy","P",0.3330874,-0.173347143,"P","correct"
"P_009","V2",13,1,"Block9.csv","Stimuli/HF01_HO.jpg","HF01_happy","happy","P",0.2376581,-0.173347143,"P","correct"
"P_009","V2",14,1,"Block9.csv","Stimuli/WM08_AO.jpg","WM08_angry","angry","N",0.3873421,-0.173347143,"N","correct"
"P_009","V2",15,1,"Block9.csv","Stimuli/HF10_SUR.jpg","HF10_surprised","surprised","P",0.536922,-0.173347143,NA,NA
"P_009","V2",16,1,"Block9.csv","Stimuli/AF06_SUR.jpg","AF06_surprised","surprised","N",0.4320117,-0.173347143,NA,NA
"P_009","V2",17,1,"Block9.csv","Stimuli/AM04_SUR.jpg","AM04_surprised","surprised","N",0.3869049,-0.173347143,NA,NA
"P_009","V2",18,1,"Block9.csv","Stimuli/BF15_SUR.jpg","BF15_surprised","surprised","N",0.3868756,-0.173347143,NA,NA
"P_009","V2",19,1,"Block9.csv","Stimuli/WM10_AO.jpg","WM10_angry","angry","N",0.3711873,-0.173347143,"N","correct"
"P_009","V2",0,2,"Block10.csv","Stimuli/HF04_HO.jpg","HF04_happy","happy","P",0.7052943,-0.173347143,"P","correct"
"P_009","V2",1,2,"Block10.csv","Stimuli/BM01_SUR.jpg","BM01_surprised","surprised","N",0.8156218,-0.173347143,NA,NA
"P_009","V2",2,2,"Block10.csv","Stimuli/WM08_SUR.jpg","WM08_surprised","surprised","P",0.7173276,-0.173347143,NA,NA
"P_009","V2",3,2,"Block10.csv","Stimuli/BF19_SUR.jpg","BF19_surprised","surprised","P",0.8701991,-0.173347143,NA,NA
"P_009","V2",4,2,"Block10.csv","Stimuli/HF01_AO.jpg","HF01_angry","angry","N",0.4496763,-0.173347143,"N","correct"
"P_009","V2",5,2,"Block10.csv","Stimuli/BM04_SUR.jpg","BM04_surprised","surprised","N",0.8832214,-0.173347143,NA,NA
"P_009","V2",6,2,"Block10.csv","Stimuli/AM05_SUR.jpg","AM05_surprised","surprised","N",0.5533296,-0.173347143,NA,NA
"P_009","V2",7,2,"Block10.csv","Stimuli/WM10_HO.jpg","WM10_happy","happy","P",0.4202028,-0.173347143,"P","correct"
"P_009","V2",8,2,"Block10.csv","Stimuli/BF12_SUR.jpg","BF12_surprised","surprised","P",0.7221215,-0.173347143,NA,NA
"P_009","V2",9,2,"Block10.csv","Stimuli/WF04_HO.jpg","WF04_happy","happy","P",0.2678943,-0.173347143,"P","correct"
"P_009","V2",10,2,"Block10.csv","Stimuli/BF09_SUR.jpg","BF09_surprised","surprised","N",1.0681589,-0.173347143,NA,NA
"P_009","V2",11,2,"Block10.csv","Stimuli/AM03_AO.jpg","AM03_angry","angry","N",0.5000354,-0.173347143,"N","correct"
"P_009","V2",12,2,"Block10.csv","Stimuli/AM09_HO.jpg","AM09_happy","happy","P",0.4337902,-0.173347143,"P","correct"
"P_009","V2",13,2,"Block10.csv","Stimuli/AM08_AO.jpg","AM08_angry","angry","N",0.5537535,-0.173347143,"N","correct"
"P_009","V2",14,2,"Block10.csv","Stimuli/BF16_AO.jpg","BF16_angry","angry","N",0.8354839,-0.173347143,"N","correct"
"P_009","V2",15,2,"Block10.csv","Stimuli/AM06_SUR.jpg","AM06_surprised","surprised","N",0.5680907,-0.173347143,NA,NA
"P_009","V2",16,2,"Block10.csv","Stimuli/HF08_SUR.jpg","HF08_surprised","surprised","N",1.3161325,-0.173347143,NA,NA
"P_009","V2",17,2,"Block10.csv","Stimuli/WM13_HO.jpg","WM13_happy","happy","P",0.4687855,-0.173347143,"P","correct"
"P_009","V2",18,2,"Block10.csv","Stimuli/WF03_AO.jpg","WF03_angry","angry","N",0.6484612,-0.173347143,"N","correct"
"P_009","V2",19,2,"Block10.csv","Stimuli/WF01_SUR.jpg","WF01_surprised","surprised","N",0.4808488,-0.173347143,NA,NA
"P_009","V2",0,3,"Block2.csv","Stimuli/BM17_SUR.jpg","BM17_surprised","surprised","None",NA,-0.173347143,NA,NA
"P_009","V2",1,3,"Block2.csv","Stimuli/AM09_SUR.jpg","AM09_surprised","surprised","None",NA,-0.173347143,NA,NA
"P_009","V2",2,3,"Block2.csv","Stimuli/HM06_AO.jpg","HM06_angry","angry","N",0.3665541,-0.173347143,"N","correct"
"P_009","V2",3,3,"Block2.csv","Stimuli/WF04_SUR.jpg","WF04_surprised","surprised","P",0.416771,-0.173347143,NA,NA
"P_009","V2",4,3,"Block2.csv","Stimuli/AM01_SUR.jpg","AM01_surprised","surprised","N",1.0019854,-0.173347143,NA,NA
"P_009","V2",5,3,"Block2.csv","Stimuli/WM13_SUR.jpg","WM13_surprised","surprised","N",0.4352622,-0.173347143,NA,NA
"P_009","V2",6,3,"Block2.csv","Stimuli/BF20_SUR.jpg","BF20_surprised","surprised","N",0.6998978,-0.173347143,NA,NA
"P_009","V2",7,3,"Block2.csv","Stimuli/HF04_SUR.jpg","HF04_surprised","surprised","P",0.720152,-0.173347143,NA,NA
"P_009","V2",8,3,"Block2.csv","Stimuli/AM10_AO.jpg","AM10_angry","angry","N",0.5841404,-0.173347143,"N","correct"
"P_009","V2",9,3,"Block2.csv","Stimuli/BM07_SUR.jpg","BM07_surprised","surprised","N",0.6518038,-0.173347143,NA,NA
"P_009","V2",10,3,"Block2.csv","Stimuli/HF07_HO.jpg","HF07_happy","happy","P",0.7198792,-0.173347143,"P","correct"
"P_009","V2",11,3,"Block2.csv","Stimuli/BM02_HO.jpg","BM02_happy","happy","P",0.6349793,-0.173347143,"P","correct"
"P_009","V2",12,3,"Block2.csv","Stimuli/BM03_SUR.jpg","BM03_surprised","surprised","P",0.5509904,-0.173347143,NA,NA
"P_009","V2",13,3,"Block2.csv","Stimuli/BF01_HO.jpg","BF01_happy","happy","P",0.5679065,-0.173347143,"P","correct"
"P_009","V2",14,3,"Block2.csv","Stimuli/BM01_AO.jpg","BM01_angry","angry","N",0.751058,-0.173347143,"N","correct"
"P_009","V2",15,3,"Block2.csv","Stimuli/WF10_HO.jpg","WF10_happy","happy","P",0.4331427,-0.173347143,"P","correct"
"P_009","V2",16,3,"Block2.csv","Stimuli/WF05_AO.jpg","WF05_angry","angry","N",0.6705061,-0.173347143,"N","correct"
"P_009","V2",17,3,"Block2.csv","Stimuli/AF07_HO.jpg","AF07_happy","happy","P",0.750197,-0.173347143,"P","correct"
"P_009","V2",18,3,"Block2.csv","Stimuli/HF02_SUR.jpg","HF02_surprised","surprised","P",0.7545348,-0.173347143,NA,NA
"P_009","V2",19,3,"Block2.csv","Stimuli/HF05_AO.jpg","HF05_angry","angry","N",0.6363477,-0.173347143,"N","correct"
"P_009","V2",0,4,"Block5.csv","Stimuli/WF02_SUR.jpg","WF02_surprised","surprised","None",NA,-0.173347143,NA,NA
"P_009","V2",1,4,"Block5.csv","Stimuli/HM02_SUR.jpg","HM02_surprised","surprised","N",1.0375395,-0.173347143,NA,NA
"P_009","V2",2,4,"Block5.csv","Stimuli/WM02_HO.jpg","WM02_happy","happy","P",0.4339872,-0.173347143,"P","correct"
"P_009","V2",3,4,"Block5.csv","Stimuli/BF04_SUR.jpg","BF04_surprised","surprised","P",1.0694176,-0.173347143,NA,NA
"P_009","V2",4,4,"Block5.csv","Stimuli/BM11_HO.jpg","BM11_happy","happy","P",0.5176885,-0.173347143,"P","correct"
"P_009","V2",5,4,"Block5.csv","Stimuli/HM03_SUR.jpg","HM03_surprised","surprised","N",0.6672961,-0.173347143,NA,NA
"P_009","V2",6,4,"Block5.csv","Stimuli/BM05_AO.jpg","BM05_angry","angry","N",0.4333365,-0.173347143,"N","correct"
"P_009","V2",7,4,"Block5.csv","Stimuli/BF07_HO.jpg","BF07_happy","happy","P",0.5167058,-0.173347143,"P","correct"
"P_009","V2",8,4,"Block5.csv","Stimuli/HM05_AO.jpg","HM05_angry","angry","N",0.4343797,-0.173347143,"N","correct"
"P_009","V2",9,4,"Block5.csv","Stimuli/BM08_SUR.jpg","BM08_surprised","surprised","N",0.4852902,-0.173347143,NA,NA
"P_009","V2",10,4,"Block5.csv","Stimuli/HM06_HO.jpg","HM06_happy","happy","P",0.5036671,-0.173347143,"P","correct"
"P_009","V2",11,4,"Block5.csv","Stimuli/WM07_SUR.jpg","WM07_surprised","surprised","None",NA,-0.173347143,NA,NA
"P_009","V2",12,4,"Block5.csv","Stimuli/AF10_AO.jpg","AF10_angry","angry","N",1.0360557,-0.173347143,"N","correct"
"P_009","V2",13,4,"Block5.csv","Stimuli/AF12_HO.jpg","AF12_happy","happy","P",0.3682175,-0.173347143,"P","correct"
"P_009","V2",14,4,"Block5.csv","Stimuli/WF13_AO.jpg","WF13_angry","angry","N",0.534108,-0.173347143,"N","correct"
"P_009","V2",15,4,"Block5.csv","Stimuli/BF14_SUR.jpg","BF14_surprised","surprised","P",0.7508862,-0.173347143,NA,NA
"P_009","V2",16,4,"Block5.csv","Stimuli/BF05_AO.jpg","BF05_angry","angry","N",0.619586,-0.173347143,"N","correct"
"P_009","V2",17,4,"Block5.csv","Stimuli/WF12_SUR.jpg","WF12_surprised","surprised","P",0.7693394,-0.173347143,NA,NA
"P_009","V2",18,4,"Block5.csv","Stimuli/AF08_SUR.jpg","AF08_surprised","surprised","N",0.9346045,-0.173347143,NA,NA
"P_009","V2",19,4,"Block5.csv","Stimuli/BM12_SUR.jpg","BM12_surprised","surprised","N",1.0679271,-0.173347143,NA,NA
"P_009","V2",0,5,"Block7.csv","Stimuli/BM14_SUR.jpg","BM14_surprised","surprised","N",0.6844644,-0.173347143,NA,NA
"P_009","V2",1,5,"Block7.csv","Stimuli/BF01_SUR.jpg","BF01_surprised","surprised","N",0.7524595,-0.173347143,NA,NA
"P_009","V2",2,5,"Block7.csv","Stimuli/HM10_SUR.jpg","HM10_surprised","surprised","N",0.4510134,-0.173347143,NA,NA
"P_009","V2",3,5,"Block7.csv","Stimuli/AF05_SUR.jpg","AF05_surprised","surprised","N",0.3684951,-0.173347143,NA,NA
"P_009","V2",4,5,"Block7.csv","Stimuli/BM12_AO.jpg","BM12_angry","angry","N",0.4701049,-0.173347143,"N","correct"
"P_009","V2",5,5,"Block7.csv","Stimuli/AF12_SUR.jpg","AF12_surprised","surprised","N",0.3827098,-0.173347143,NA,NA
"P_009","V2",6,5,"Block7.csv","Stimuli/HF03_AO.jpg","HF03_angry","angry","N",0.4179814,-0.173347143,"N","correct"
"P_009","V2",7,5,"Block7.csv","Stimuli/AM07_SUR.jpg","AM07_surprised","surprised","N",0.3688942,-0.173347143,NA,NA
"P_009","V2",8,5,"Block7.csv","Stimuli/HM11_HO.jpg","HM11_happy","happy","P",0.4687244,-0.173347143,"P","correct"
"P_009","V2",9,5,"Block7.csv","Stimuli/BF13_AO.jpg","BF13_angry","angry","N",0.5522013,-0.173347143,"N","correct"
"P_009","V2",10,5,"Block7.csv","Stimuli/AF08_AO.jpg","AF08_angry","angry","N",0.5189799,-0.173347143,"N","correct"
"P_009","V2",11,5,"Block7.csv","Stimuli/WM02_SUR.jpg","WM02_surprised","surprised","N",0.4999291,-0.173347143,NA,NA
"P_009","V2",12,5,"Block7.csv","Stimuli/AM04_HO.jpg","AM04_happy","happy","P",0.3857384,-0.173347143,"P","correct"
"P_009","V2",13,5,"Block7.csv","Stimuli/HM06_SUR.jpg","HM06_surprised","surprised","P",0.6349397,-0.173347143,NA,NA
"P_009","V2",14,5,"Block7.csv","Stimuli/BM15_HO.jpg","BM15_happy","happy","P",0.4846703,-0.173347143,"P","correct"
"P_009","V2",15,5,"Block7.csv","Stimuli/BF07_SUR.jpg","BF07_surprised","surprised","P",0.4857801,-0.173347143,NA,NA
"P_009","V2",16,5,"Block7.csv","Stimuli/WF13_HO.jpg","WF13_happy","happy","P",0.5521442,-0.173347143,"P","correct"
"P_009","V2",17,5,"Block7.csv","Stimuli/BF18_SUR.jpg","BF18_surprised","surprised","P",0.4364148,-0.173347143,NA,NA
"P_009","V2",18,5,"Block7.csv","Stimuli/BF15_HO.jpg","BF15_happy","happy","P",0.3185632,-0.173347143,"P","correct"
"P_009","V2",19,5,"Block7.csv","Stimuli/WM04_AO.jpg","WM04_angry","angry","N",0.5883959,-0.173347143,"N","correct"
"P_009","V2",0,6,"Block8.csv","Stimuli/AF03_SUR.jpg","AF03_surprised","surprised","P",0.6189334,-0.173347143,NA,NA
"P_009","V2",1,6,"Block8.csv","Stimuli/BF04_HO.jpg","BF04_happy","happy","P",0.4340162,-0.173347143,"P","correct"
"P_009","V2",2,6,"Block8.csv","Stimuli/BM15_AO.jpg","BM15_angry","angry","N",0.352295,-0.173347143,"N","correct"
"P_009","V2",3,6,"Block8.csv","Stimuli/BM06_SUR.jpg","BM06_surprised","surprised","P",0.4843579,-0.173347143,NA,NA
"P_009","V2",4,6,"Block8.csv","Stimuli/BF16_HO.jpg","BF16_happy","happy","P",0.3361796,-0.173347143,"P","correct"
"P_009","V2",5,6,"Block8.csv","Stimuli/WM06_AO.jpg","WM06_angry","angry","N",0.5856929,-0.173347143,"N","correct"
"P_009","V2",6,6,"Block8.csv","Stimuli/WM09_SUR.jpg","WM09_surprised","surprised","P",0.5507555,-0.173347143,NA,NA
"P_009","V2",7,6,"Block8.csv","Stimuli/BF13_SUR.jpg","BF13_surprised","surprised","P",1.0499818,-0.173347143,NA,NA
"P_009","V2",8,6,"Block8.csv","Stimuli/WF01_HO.jpg","WF01_happy","happy","P",0.3339423,-0.173347143,"P","correct"
"P_009","V2",9,6,"Block8.csv","Stimuli/BM18_HO.jpg","BM18_happy","happy","P",0.4534784,-0.173347143,"P","correct"
"P_009","V2",10,6,"Block8.csv","Stimuli/AF09_SUR.jpg","AF09_surprised","surprised","N",0.5411511,-0.173347143,NA,NA
"P_009","V2",11,6,"Block8.csv","Stimuli/BF01_AO.jpg","BF01_angry","angry","N",0.4840936,-0.173347143,"N","correct"
"P_009","V2",12,6,"Block8.csv","Stimuli/AM03_SUR.jpg","AM03_surprised","surprised","N",0.5196513,-0.173347143,NA,NA
"P_009","V2",13,6,"Block8.csv","Stimuli/AM04_AO.jpg","AM04_angry","angry","N",0.3340649,-0.173347143,"N","correct"
"P_009","V2",14,6,"Block8.csv","Stimuli/WM04_SUR.jpg","WM04_surprised","surprised","P",0.4683979,-0.173347143,NA,NA
"P_009","V2",15,6,"Block8.csv","Stimuli/AM06_HO.jpg","AM06_happy","happy","P",0.4348603,-0.173347143,"P","correct"
"P_009","V2",16,6,"Block8.csv","Stimuli/HM08_SUR.jpg","HM08_surprised","surprised","N",0.3680571,-0.173347143,NA,NA
"P_009","V2",17,6,"Block8.csv","Stimuli/BF15_AO.jpg","BF15_angry","angry","N",0.6865999,-0.173347143,"N","correct"
"P_009","V2",18,6,"Block8.csv","Stimuli/HF01_SUR.jpg","HF01_surprised","surprised","N",0.6517846,-0.173347143,NA,NA
"P_009","V2",19,6,"Block8.csv","Stimuli/WF08_SUR.jpg","WF08_surprised","surprised","P",0.4350916,-0.173347143,NA,NA
"P_009","V2",0,7,"Block6.csv","Stimuli/WF15_SUR.jpg","WF15_surprised","surprised","P",0.7511047,-0.173347143,NA,NA
"P_009","V2",1,7,"Block6.csv","Stimuli/BM12_HO.jpg","BM12_happy","happy","P",0.2832653,-0.173347143,"P","correct"
"P_009","V2",2,7,"Block6.csv","Stimuli/WF11_SUR.jpg","WF11_surprised","surprised","N",0.4342009,-0.173347143,NA,NA
"P_009","V2",3,7,"Block6.csv","Stimuli/BM15_SUR.jpg","BM15_surprised","surprised","N",0.3515814,-0.173347143,NA,NA
"P_009","V2",4,7,"Block6.csv","Stimuli/BF13_HO.jpg","BF13_happy","happy","P",0.3682535,-0.173347143,"P","correct"
"P_009","V2",5,7,"Block6.csv","Stimuli/AF12_AO.jpg","AF12_angry","angry","N",0.4860545,-0.173347143,"N","correct"
"P_009","V2",6,7,"Block6.csv","Stimuli/HM01_SUR.jpg","HM01_surprised","surprised","P",0.4170969,-0.173347143,NA,NA
"P_009","V2",7,7,"Block6.csv","Stimuli/HM05_SUR.jpg","HM05_surprised","surprised","N",0.3866436,-0.173347143,NA,NA
"P_009","V2",8,7,"Block6.csv","Stimuli/WM12_SUR.jpg","WM12_surprised","surprised","P",0.5343666,-0.173347143,NA,NA
"P_009","V2",9,7,"Block6.csv","Stimuli/WM02_AO.jpg","WM02_angry","angry","N",0.4853663,-0.173347143,"N","correct"
"P_009","V2",10,7,"Block6.csv","Stimuli/HM08_HO.jpg","HM08_happy","happy","P",0.470408,-0.173347143,"P","correct"
"P_009","V2",11,7,"Block6.csv","Stimuli/AF10_SUR.jpg","AF10_surprised","surprised","N",0.7523802,-0.173347143,NA,NA
"P_009","V2",12,7,"Block6.csv","Stimuli/BM11_AO.jpg","BM11_angry","angry","N",0.5347581,-0.173347143,"N","correct"
"P_009","V2",13,7,"Block6.csv","Stimuli/WF13_SUR.jpg","WF13_surprised","surprised","N",0.5346889,-0.173347143,NA,NA
"P_009","V2",14,7,"Block6.csv","Stimuli/WM04_HO.jpg","WM04_happy","happy","P",0.5701281,-0.173347143,"P","correct"
"P_009","V2",15,7,"Block6.csv","Stimuli/BF05_SUR.jpg","BF05_surprised","surprised","N",0.6053256,-0.173347143,NA,NA
"P_009","V2",16,7,"Block6.csv","Stimuli/AF02_AO.jpg","AF02_angry","angry","N",0.4035217,-0.173347143,"N","correct"
"P_009","V2",17,7,"Block6.csv","Stimuli/AM03_HO.jpg","AM03_happy","happy","P",0.4840139,-0.173347143,"P","correct"
"P_009","V2",18,7,"Block6.csv","Stimuli/WF06_SUR.jpg","WF06_surprised","surprised","P",0.647988,-0.173347143,NA,NA
"P_009","V2",19,7,"Block6.csv","Stimuli/BF07_AO.jpg","BF07_angry","angry","N",0.4674401,-0.173347143,"N","correct"
"P_009","V2",0,8,"Block3.csv","Stimuli/WM11_SUR.jpg","WM11_surprised","surprised","N",0.8176903,-0.173347143,NA,NA
"P_009","V2",1,8,"Block3.csv","Stimuli/HM07_SUR.jpg","HM07_surprised","surprised","N",0.4865846,-0.173347143,NA,NA
"P_009","V2",2,8,"Block3.csv","Stimuli/AF07_AO.jpg","AF07_angry","angry","N",0.4863547,-0.173347143,"N","correct"
"P_009","V2",3,8,"Block3.csv","Stimuli/AM10_SUR.jpg","AM10_surprised","surprised","P",0.6008538,-0.173347143,NA,NA
"P_009","V2",4,8,"Block3.csv","Stimuli/BF17_SUR.jpg","BF17_surprised","surprised","N",0.5028932,-0.173347143,NA,NA
"P_009","V2",5,8,"Block3.csv","Stimuli/BM02_AO.jpg","BM02_angry","angry","N",0.3692216,-0.173347143,"N","correct"
"P_009","V2",6,8,"Block3.csv","Stimuli/HM11_AO.jpg","HM11_angry","angry","N",0.3529671,-0.173347143,"N","correct"
"P_009","V2",7,8,"Block3.csv","Stimuli/WF05_SUR.jpg","WF05_surprised","surprised","N",0.3846375,-0.173347143,NA,NA
"P_009","V2",8,8,"Block3.csv","Stimuli/BM09_SUR.jpg","BM09_surprised","surprised","N",0.1346946,-0.173347143,NA,NA
"P_009","V2",9,8,"Block3.csv","Stimuli/BM05_SUR.jpg","BM05_surprised","surprised","N",0.3850701,-0.173347143,NA,NA
"P_009","V2",10,8,"Block3.csv","Stimuli/AF08_HO.jpg","AF08_happy","happy","P",0.7365381,-0.173347143,"P","correct"
"P_009","V2",11,8,"Block3.csv","Stimuli/HM03_HO.jpg","HM03_happy","happy","P",0.4194249,-0.173347143,"P","correct"
"P_009","V2",12,8,"Block3.csv","Stimuli/AF02_SUR.jpg","AF02_surprised","surprised","N",0.8160741,-0.173347143,NA,NA
"P_009","V2",13,8,"Block3.csv","Stimuli/HF05_SUR.jpg","HF05_surprised","surprised","N",0.9527615,-0.173347143,NA,NA
"P_009","V2",14,8,"Block3.csv","Stimuli/WF10_AO.jpg","WF10_angry","angry","N",0.419629,-0.173347143,"N","correct"
"P_009","V2",15,8,"Block3.csv","Stimuli/HF07_AO.jpg","HF07_angry","angry","N",0.6513484,-0.173347143,"N","correct"
"P_009","V2",16,8,"Block3.csv","Stimuli/WM08_HO.jpg","WM08_happy","happy","P",0.3857981,-0.173347143,"P","correct"
"P_009","V2",17,8,"Block3.csv","Stimuli/BM03_HO.jpg","BM03_happy","happy","P",0.4021376,-0.173347143,"P","correct"
"P_009","V2",18,8,"Block3.csv","Stimuli/WF12_HO.jpg","WF12_happy","happy","P",0.4025669,-0.173347143,"P","correct"
"P_009","V2",19,8,"Block3.csv","Stimuli/HF09_SUR.jpg","HF09_surprised","surprised","N",0.7363183,-0.173347143,NA,NA
"P_009","V2",0,9,"Block4.csv","Stimuli/BF04_AO.jpg","BF04_angry","angry","N",0.6692868,-0.173347143,"N","correct"
"P_009","V2",1,9,"Block4.csv","Stimuli/BM05_HO.jpg","BM05_happy","happy","P",0.5023631,-0.173347143,"P","correct"
"P_009","V2",2,9,"Block4.csv","Stimuli/BM11_SUR.jpg","BM11_surprised","surprised","P",0.5643087,-0.173347143,NA,NA
"P_009","V2",3,9,"Block4.csv","Stimuli/WF10_SUR.jpg","WF10_surprised","surprised","N",0.4849622,-0.173347143,NA,NA
"P_009","V2",4,9,"Block4.csv","Stimuli/AF07_SUR.jpg","AF07_surprised","surprised","N",0.4502615,-0.173347143,NA,NA
"P_009","V2",5,9,"Block4.csv","Stimuli/HM08_AO.jpg","HM08_angry","angry","N",0.5681395,-0.173347143,"N","correct"
"P_009","V2",6,9,"Block4.csv","Stimuli/AM11_SUR.jpg","AM11_surprised","surprised","N",0.5859575,-0.173347143,NA,NA
"P_009","V2",7,9,"Block4.csv","Stimuli/AF01_SUR.jpg","AF01_surprised","surprised","N",1.0012185,-0.173347143,NA,NA
"P_009","V2",8,9,"Block4.csv","Stimuli/BF05_HO.jpg","BF05_happy","happy","P",0.2351825,-0.173347143,"P","correct"
"P_009","V2",9,9,"Block4.csv","Stimuli/WM06_HO.jpg","WM06_happy","happy","P",0.3695783,-0.173347143,"P","correct"
"P_009","V2",10,9,"Block4.csv","Stimuli/AF10_HO.jpg","AF10_happy","happy","P",0.2675167,-0.173347143,"P","correct"
"P_009","V2",11,9,"Block4.csv","Stimuli/WF12_AO.jpg","WF12_angry","angry","N",0.4177277,-0.173347143,"N","correct"
"P_009","V2",12,9,"Block4.csv","Stimuli/WF07_SUR.jpg","WF07_surprised","surprised","P",0.5673082,-0.173347143,NA,NA
"P_009","V2",13,9,"Block4.csv","Stimuli/BF03_SUR.jpg","BF03_surprised","surprised","N",0.6659464,-0.173347143,NA,NA
"P_009","V2",14,9,"Block4.csv","Stimuli/HM05_HO.jpg","HM05_happy","happy","P",0.4352063,-0.173347143,"P","correct"
"P_009","V2",15,9,"Block4.csv","Stimuli/HM03_AO.jpg","HM03_angry","angry","N",0.7344085,-0.173347143,"N","correct"
"P_009","V2",16,9,"Block4.csv","Stimuli/BM03_AO.jpg","BM03_angry","angry","N",0.6370196,-0.173347143,"N","correct"
"P_009","V2",17,9,"Block4.csv","Stimuli/BM18_SUR.jpg","BM18_surprised","surprised","N",0.3513757,-0.173347143,NA,NA
"P_009","V2",18,9,"Block4.csv","Stimuli/HF07_SUR.jpg","HF07_surprised","surprised","N",0.5009496,-0.173347143,NA,NA
"P_009","V2",19,9,"Block4.csv","Stimuli/WM03_SUR.jpg","WM03_surprised","surprised","N",0.5521513,-0.173347143,NA,NA
"P_010","V1",0,0,"Block3.csv","Stimuli/AM10_SUR.jpg","AM10_surprised","surprised","N",0.5466563,0.023376207,NA,NA
"P_010","V1",1,0,"Block3.csv","Stimuli/AF08_HO.jpg","AF08_happy","happy","P",0.4222725,0.023376207,"P","correct"
"P_010","V1",2,0,"Block3.csv","Stimuli/WM11_SUR.jpg","WM11_surprised","surprised","N",0.1980464,0.023376207,NA,NA
"P_010","V1",3,0,"Block3.csv","Stimuli/HF09_SUR.jpg","HF09_surprised","surprised","N",0.1845855,0.023376207,NA,NA
"P_010","V1",4,0,"Block3.csv","Stimuli/BM05_SUR.jpg","BM05_surprised","surprised","N",0.2020769,0.023376207,NA,NA
"P_010","V1",5,0,"Block3.csv","Stimuli/WM08_HO.jpg","WM08_happy","happy","P",0.0852455,0.023376207,"P","correct"
"P_010","V1",6,0,"Block3.csv","Stimuli/WF10_AO.jpg","WF10_angry","angry","N",0.2865431,0.023376207,"N","correct"
"P_010","V1",7,0,"Block3.csv","Stimuli/WF12_HO.jpg","WF12_happy","happy","P",0.2352927,0.023376207,"P","correct"
"P_010","V1",8,0,"Block3.csv","Stimuli/HM11_AO.jpg","HM11_angry","angry","N",0.218959,0.023376207,"N","correct"
"P_010","V1",9,0,"Block3.csv","Stimuli/HM03_HO.jpg","HM03_happy","happy","P",0.2364539,0.023376207,"P","correct"
"P_010","V1",10,0,"Block3.csv","Stimuli/BM09_SUR.jpg","BM09_surprised","surprised","N",0.2365636,0.023376207,NA,NA
"P_010","V1",11,0,"Block3.csv","Stimuli/BF17_SUR.jpg","BF17_surprised","surprised","N",0.4838898,0.023376207,NA,NA
"P_010","V1",12,0,"Block3.csv","Stimuli/BM03_HO.jpg","BM03_happy","happy","P",0.2178478,0.023376207,"P","correct"
"P_010","V1",13,0,"Block3.csv","Stimuli/BM02_AO.jpg","BM02_angry","angry","N",0.3845697,0.023376207,"N","correct"
"P_010","V1",14,0,"Block3.csv","Stimuli/AF07_AO.jpg","AF07_angry","angry","N",0.4352694,0.023376207,"N","correct"
"P_010","V1",15,0,"Block3.csv","Stimuli/HM07_SUR.jpg","HM07_surprised","surprised","N",0.4354014,0.023376207,NA,NA
"P_010","V1",16,0,"Block3.csv","Stimuli/AF02_SUR.jpg","AF02_surprised","surprised","N",0.135446,0.023376207,NA,NA
"P_010","V1",17,0,"Block3.csv","Stimuli/HF05_SUR.jpg","HF05_surprised","surprised","P",0.2853536,0.023376207,NA,NA
"P_010","V1",18,0,"Block3.csv","Stimuli/WF05_SUR.jpg","WF05_surprised","surprised","N",0.4534111,0.023376207,NA,NA
"P_010","V1",19,0,"Block3.csv","Stimuli/HF07_AO.jpg","HF07_angry","angry","N",0.6189153,0.023376207,"N","correct"
"P_010","V1",0,1,"Block10.csv","Stimuli/BF09_SUR.jpg","BF09_surprised","surprised","N",0.5358313,0.023376207,NA,NA
"P_010","V1",1,1,"Block10.csv","Stimuli/HF04_HO.jpg","HF04_happy","happy","P",0.4519916,0.023376207,"P","correct"
"P_010","V1",2,1,"Block10.csv","Stimuli/BM04_SUR.jpg","BM04_surprised","surprised","N",0.5181611,0.023376207,NA,NA
"P_010","V1",3,1,"Block10.csv","Stimuli/AM05_SUR.jpg","AM05_surprised","surprised","N",0.5017124,0.023376207,NA,NA
"P_010","V1",4,1,"Block10.csv","Stimuli/BM01_SUR.jpg","BM01_surprised","surprised","N",0.5171843,0.023376207,NA,NA
"P_010","V1",5,1,"Block10.csv","Stimuli/BF16_AO.jpg","BF16_angry","angry","P",0.5517502,0.023376207,"N","incorrect"
"P_010","V1",6,1,"Block10.csv","Stimuli/AM09_HO.jpg","AM09_happy","happy","P",0.4022281,0.023376207,"P","correct"
"P_010","V1",7,1,"Block10.csv","Stimuli/HF01_AO.jpg","HF01_angry","angry","N",0.4021902,0.023376207,"N","correct"
"P_010","V1",8,1,"Block10.csv","Stimuli/AM08_AO.jpg","AM08_angry","angry","N",0.4342201,0.023376207,"N","correct"
"P_010","V1",9,1,"Block10.csv","Stimuli/WM08_SUR.jpg","WM08_surprised","surprised","N",0.4705939,0.023376207,NA,NA
"P_010","V1",10,1,"Block10.csv","Stimuli/AM06_SUR.jpg","AM06_surprised","surprised","N",0.6185213,0.023376207,NA,NA
"P_010","V1",11,1,"Block10.csv","Stimuli/BF19_SUR.jpg","BF19_surprised","surprised","P",0.6510217,0.023376207,NA,NA
"P_010","V1",12,1,"Block10.csv","Stimuli/WF04_HO.jpg","WF04_happy","happy","P",0.5017078,0.023376207,"P","correct"
"P_010","V1",13,1,"Block10.csv","Stimuli/HF08_SUR.jpg","HF08_surprised","surprised","P",0.7837614,0.023376207,NA,NA
"P_010","V1",14,1,"Block10.csv","Stimuli/WM13_HO.jpg","WM13_happy","happy","P",0.4340567,0.023376207,"P","correct"
"P_010","V1",15,1,"Block10.csv","Stimuli/WF01_SUR.jpg","WF01_surprised","surprised","N",0.5176743,0.023376207,NA,NA
"P_010","V1",16,1,"Block10.csv","Stimuli/AM03_AO.jpg","AM03_angry","angry","N",0.4323098,0.023376207,"N","correct"
"P_010","V1",17,1,"Block10.csv","Stimuli/WM10_HO.jpg","WM10_happy","happy","P",0.7856241,0.023376207,"P","correct"
"P_010","V1",18,1,"Block10.csv","Stimuli/BF12_SUR.jpg","BF12_surprised","surprised","P",0.6694722,0.023376207,NA,NA
"P_010","V1",19,1,"Block10.csv","Stimuli/WF03_AO.jpg","WF03_angry","angry","N",0.8175441,0.023376207,"N","correct"
"P_010","V1",0,2,"Block9.csv","Stimuli/BM18_AO.jpg","BM18_angry","angry","N",0.5678365,0.023376207,"N","correct"
"P_010","V1",1,2,"Block9.csv","Stimuli/HM11_SUR.jpg","HM11_surprised","surprised","N",0.6355063,0.023376207,NA,NA
"P_010","V1",2,2,"Block9.csv","Stimuli/WM06_SUR.jpg","WM06_surprised","surprised","N",0.6864069,0.023376207,NA,NA
"P_010","V1",3,2,"Block9.csv","Stimuli/BF15_SUR.jpg","BF15_surprised","surprised","N",0.4674488,0.023376207,NA,NA
"P_010","V1",4,2,"Block9.csv","Stimuli/BF19_HO.jpg","BF19_happy","happy","P",0.4510357,0.023376207,"P","correct"
"P_010","V1",5,2,"Block9.csv","Stimuli/HF03_HO.jpg","HF03_happy","happy","P",0.6018332,0.023376207,"P","correct"
"P_010","V1",6,2,"Block9.csv","Stimuli/HF01_HO.jpg","HF01_happy","happy","P",0.4986729,0.023376207,"P","correct"
"P_010","V1",7,2,"Block9.csv","Stimuli/AF06_SUR.jpg","AF06_surprised","surprised","N",0.6339047,0.023376207,NA,NA
"P_010","V1",8,2,"Block9.csv","Stimuli/AM02_SUR.jpg","AM02_surprised","surprised","N",0.7346346,0.023376207,NA,NA
"P_010","V1",9,2,"Block9.csv","Stimuli/WF03_HO.jpg","WF03_happy","happy","P",0.4840337,0.023376207,"P","correct"
"P_010","V1",10,2,"Block9.csv","Stimuli/AM08_HO.jpg","AM08_happy","happy","P",0.4689588,0.023376207,"P","correct"
"P_010","V1",11,2,"Block9.csv","Stimuli/BF10_SUR.jpg","BF10_surprised","surprised","N",0.4861981,0.023376207,NA,NA
"P_010","V1",12,2,"Block9.csv","Stimuli/BF16_SUR.jpg","BF16_surprised","surprised","N",0.7684552,0.023376207,NA,NA
"P_010","V1",13,2,"Block9.csv","Stimuli/AM04_SUR.jpg","AM04_surprised","surprised","N",0.5349444,0.023376207,NA,NA
"P_010","V1",14,2,"Block9.csv","Stimuli/BM16_SUR.jpg","BM16_surprised","surprised","N",0.4355073,0.023376207,NA,NA
"P_010","V1",15,2,"Block9.csv","Stimuli/WM10_AO.jpg","WM10_angry","angry","N",0.5349622,0.023376207,"N","correct"
"P_010","V1",16,2,"Block9.csv","Stimuli/AM06_AO.jpg","AM06_angry","angry","N",0.6332055,0.023376207,"N","correct"
"P_010","V1",17,2,"Block9.csv","Stimuli/WM08_AO.jpg","WM08_angry","angry","N",0.467722,0.023376207,"N","correct"
"P_010","V1",18,2,"Block9.csv","Stimuli/HF10_SUR.jpg","HF10_surprised","surprised","N",0.4514465,0.023376207,NA,NA
"P_010","V1",19,2,"Block9.csv","Stimuli/WF01_AO.jpg","WF01_angry","angry","N",0.7183038,0.023376207,"N","correct"
"P_010","V1",0,3,"Block8.csv","Stimuli/BM06_SUR.jpg","BM06_surprised","surprised","P",0.4673982,0.023376207,NA,NA
"P_010","V1",1,3,"Block8.csv","Stimuli/WM04_SUR.jpg","WM04_surprised","surprised","N",0.7687282,0.023376207,NA,NA
"P_010","V1",2,3,"Block8.csv","Stimuli/WF01_HO.jpg","WF01_happy","happy","P",0.4681816,0.023376207,"P","correct"
"P_010","V1",3,3,"Block8.csv","Stimuli/BF04_HO.jpg","BF04_happy","happy","P",0.2520252,0.023376207,"P","correct"
"P_010","V1",4,3,"Block8.csv","Stimuli/AM04_AO.jpg","AM04_angry","angry","N",0.4362528,0.023376207,"N","correct"
"P_010","V1",5,3,"Block8.csv","Stimuli/HF01_SUR.jpg","HF01_surprised","surprised","N",0.8516203,0.023376207,NA,NA
"P_010","V1",6,3,"Block8.csv","Stimuli/BF15_AO.jpg","BF15_angry","angry","N",0.5504521,0.023376207,"N","correct"
"P_010","V1",7,3,"Block8.csv","Stimuli/HM08_SUR.jpg","HM08_surprised","surprised","N",0.7183251,0.023376207,NA,NA
"P_010","V1",8,3,"Block8.csv","Stimuli/AM03_SUR.jpg","AM03_surprised","surprised","N",0.5366676,0.023376207,NA,NA
"P_010","V1",9,3,"Block8.csv","Stimuli/BF13_SUR.jpg","BF13_surprised","surprised","P",0.9339239,0.023376207,NA,NA
"P_010","V1",10,3,"Block8.csv","Stimuli/BM15_AO.jpg","BM15_angry","angry","N",0.400585,0.023376207,"N","correct"
"P_010","V1",11,3,"Block8.csv","Stimuli/WF08_SUR.jpg","WF08_surprised","surprised","P",0.816751,0.023376207,NA,NA
"P_010","V1",12,3,"Block8.csv","Stimuli/BF16_HO.jpg","BF16_happy","happy","None",NA,0.023376207,"P","no response"
